"Time (s)","Linear Acceleration x (m/s^2)","Linear Acceleration y (m/s^2)","Linear Acceleration z (m/s^2)","Absolute acceleration (m/s^2)"
2.149208332E-3,4.307353238E-2,9.785589483E-3,-2.145928144E-2,4.910791905E-2
1.214320830E-2,2.167825053E-1,-3.373804145E-2,1.245106101E-2,2.197451683E-1
2.213620831E-2,2.541354326E-1,-4.261185816E-2,-7.477419376E-3,2.577915831E-1
3.213020833E-2,1.044781772E-1,7.529349960E-3,3.210589170E-2,1.095589745E-1
4.212420830E-2,-1.311623478E-1,2.700997017E-2,5.515620053E-2,1.448285415E-1
5.211720831E-2,-2.607474823E-1,2.310210236E-2,-2.016587734E-2,2.625445091E-1
6.211120833E-2,-2.453540293E-1,2.411938998E-2,-4.155791581E-2,2.500148096E-1
7.210420835E-2,-1.529743625E-1,1.834244141E-2,-4.957737207E-2,1.618502906E-1
8.209820831E-2,-3.577008594E-2,-2.948696036E-3,-3.353962898E-2,4.912332001E-2
9.209220833E-2,1.105533246E-1,-1.511393784E-2,4.528083801E-3,1.116735073E-1
1.020852083E-1,1.437546191E-1,-1.098675376E-2,3.068384886E-2,1.474028421E-1
1.120792083E-1,1.087816731E-1,3.302635308E-3,2.773334384E-2,1.123098311E-1
1.220722083E-1,6.503540028E-2,9.856532654E-3,-1.964664459E-3,6.580740408E-2
1.320662083E-1,2.441194262E-3,-1.328560486E-3,-4.185436964E-2,4.194654647E-2
1.420602083E-1,9.175509274E-2,5.090302723E-2,-4.842430115E-2,1.155639570E-1
1.520532083E-1,-2.745112432E-2,2.331530646E-2,-1.461394608E-2,3.886817673E-2
1.620472083E-1,-7.750811426E-2,6.767261331E-3,5.098772049E-3,7.796987289E-2
1.720402083E-1,-4.583858930E-2,1.096352478E-2,-2.554005325E-2,5.360661773E-2
1.820342083E-1,3.656351656E-2,2.561747404E-3,-1.428708673E-2,3.933921885E-2
1.920282083E-1,2.924927104E-2,7.752508032E-3,2.575055301E-2,3.973301169E-2
2.020212083E-1,4.617984742E-3,7.657148167E-3,3.172465324E-2,3.296075431E-2
2.120152083E-1,6.569547784E-2,6.883378811E-3,-1.454144061E-2,6.763675189E-2
2.220082083E-1,8.732304946E-2,3.030129477E-2,-4.619592726E-2,1.033322173E-1
2.320022083E-1,3.723452110E-2,3.577091277E-2,-1.769133568E-2,5.457976841E-2
2.419962083E-1,-1.398473086E-2,2.393980280E-2,2.310761154E-2,3.609222307E-2
2.519892083E-1,-5.342098447E-2,2.762978417E-3,2.979097903E-2,6.122857227E-2
2.619832083E-1,-2.224200070E-1,-6.850473605E-2,-9.946113825E-3,2.329430908E-1
2.719762083E-1,-4.744424202E-1,-5.959206734E-2,1.549161315E-2,4.784211687E-1
2.819702083E-1,-4.123398737E-1,1.324379910E-1,-5.159232259E-2,4.361487827E-1
2.919642083E-1,3.955168130E-2,4.755479277E-2,-1.841504556E-1,1.942606087E-1
3.019572083E-1,4.839223648E-1,-7.396101052E-2,2.687965035E-2,4.902791060E-1
3.119512083E-1,4.674399409E-1,-3.074177284E-2,9.297482193E-2,4.775871360E-1
3.219442083E-1,1.591018425E-1,-4.788286268E-2,6.505553663E-2,1.784331463E-1
3.319382083E-1,-3.717851574E-2,-3.869705591E-3,-2.133239686E-2,4.303821337E-2
3.419322083E-1,-9.594109615E-2,-1.829808937E-2,-2.782982290E-2,1.015579295E-1
3.519252083E-1,-1.547160105E-1,-2.338316614E-2,-3.243450522E-2,1.597992913E-1
3.619192083E-1,-1.661317489E-1,-1.685449405E-2,-2.643643141E-2,1.690642389E-1
3.719122083E-1,-1.265798118E-1,5.445140548E-2,-2.432558656E-2,1.399254747E-1
3.819062083E-1,-1.271152889E-1,1.810889266E-1,2.810171843E-3,2.212676955E-1
3.919002083E-1,-3.420310523E-2,-3.040721160E-2,-1.178564787E-2,4.725835821E-2
4.018932083E-1,1.960489365E-1,-7.199047144E-2,4.308754742E-2,2.132471576E-1
4.118872083E-1,1.426546847E-1,-7.031359049E-3,-1.570562124E-3,1.428365001E-1
4.218802083E-1,-1.232871168E-1,-3.119520157E-2,1.188738942E-2,1.277269110E-1
4.318742083E-1,-2.286459577E-1,-1.709614394E-2,3.600481510E-2,2.320939440E-1
4.418682083E-1,-1.518899781E-1,-3.322756126E-2,-3.386999667E-2,1.591282909E-1
4.518612083E-1,-8.201651853E-3,-1.140202484E-3,3.259881198E-2,3.363405562E-2
4.618552083E-1,2.139445044E-2,9.005799321E-3,6.493332982E-3,2.410374046E-2
4.718482083E-1,4.271838712E-2,6.476190590E-2,1.125618249E-1,1.367081910E-1
4.818422083E-1,1.115886290E-1,6.861074424E-2,-8.490157127E-4,1.309968594E-1
4.918362083E-1,3.703838356E-2,1.624723786E-2,-2.635959899E-1,2.666808214E-1
5.018292083E-1,-8.937293708E-2,-5.276008464E-2,2.662354231E-2,1.071445818E-1
5.118232083E-1,-6.507585570E-2,-4.728345456E-2,1.000177932E-1,1.283516693E-1
5.218162083E-1,2.232826905E-2,4.680942809E-3,-6.492163539E-3,2.371942267E-2
5.318102083E-1,7.362223746E-2,1.643460458E-2,-4.103459001E-2,8.587297394E-2
5.418042083E-1,2.961093960E-2,2.564235211E-2,-3.055462539E-2,4.967819541E-2
5.517972083E-1,-7.762105688E-3,4.578127745E-2,-1.337550581E-2,4.832266347E-2
5.617912083E-1,5.329446534E-2,6.524911601E-2,-3.893719375E-2,9.281084114E-2
5.717842083E-1,2.829325128E-2,5.058216127E-2,-9.470325887E-2,1.110304929E-1
5.817782083E-1,-1.541842611E-1,-6.414287763E-2,-9.991663635E-2,1.946032614E-1
5.917722083E-1,-1.244914970E-1,-7.493184932E-2,6.084027886E-2,1.575260436E-1
6.017652083E-1,8.506898437E-2,-2.439493088E-2,1.418043351E-1,1.671535648E-1
6.117592083E-1,1.317152751E-1,5.201750653E-2,2.086345017E-2,1.431433486E-1
6.217522083E-1,-6.340556201E-3,9.765306953E-3,-7.559514284E-2,7.648653146E-2
6.317462083E-1,-4.609535515E-2,-1.888946671E-2,-8.942731619E-3,5.061191725E-2
6.417402083E-1,-9.745938051E-3,5.239784963E-2,5.615665913E-3,5.359154465E-2
6.517332083E-1,3.805674925E-2,1.245683605E-1,-1.368014574E-2,1.309684656E-1
6.617272083E-1,-7.582069919E-2,-5.503575702E-2,-8.214285493E-2,1.246000064E-1
6.717202083E-1,-1.869427203E-1,-1.125951358E-1,2.724919438E-2,2.199267239E-1
6.817142083E-1,2.309650183E-2,5.037383594E-2,1.045183951E-1,1.183007466E-1
6.917082083E-1,8.757362092E-2,1.062017902E-2,-5.683785975E-2,1.049403144E-1
7.017012083E-1,-1.785449127E-2,2.129778866E-2,-3.440209329E-2,4.422536244E-2
7.116952083E-1,-5.712981854E-2,4.532757919E-2,-1.032618284E-3,7.293470986E-2
7.216882083E-1,-3.293323617E-2,1.412468031E-4,-1.675870478E-2,3.695229603E-2
7.316822083E-1,-4.969851907E-2,-3.794838390E-2,-4.780683517E-3,6.271265880E-2
7.416762083E-1,-6.018529935E-2,-3.272283691E-2,3.537273109E-2,7.709918558E-2
7.516692083E-1,-3.752432372E-3,4.825341627E-3,-5.305178761E-3,8.093799616E-3
7.616641250E-1,4.582565233E-2,4.021559609E-2,-3.898747981E-2,7.236924873E-2
7.716571250E-1,5.386480641E-2,2.189445133E-2,-3.225908875E-3,5.823393217E-2
7.816511250E-1,-6.221452072E-2,-1.712020889E-2,1.087114334E-2,6.543645695E-2
7.916451250E-1,-1.051083243E-1,-2.132455794E-2,-3.611240387E-3,1.073104732E-1
8.016381250E-1,-4.655735828E-2,2.475014010E-2,-2.906066179E-2,6.020530798E-2
8.116321250E-1,5.018798584E-2,3.290072931E-2,-4.150821447E-2,7.296727884E-2
8.216251250E-1,2.554900680E-2,1.918057582E-2,1.895550370E-2,3.714777729E-2
8.316191250E-1,-5.853346093E-2,-2.900608169E-2,3.529262424E-2,7.425017272E-2
8.416131250E-1,-6.925425773E-2,-1.774635432E-2,-5.844292045E-3,7.173033567E-2
8.516061250E-1,-3.602515245E-2,6.485795556E-3,-3.098088741E-2,4.795510961E-2
8.616001250E-1,-2.050888963E-2,2.304836280E-2,-7.771534324E-3,3.181569310E-2
8.715931250E-1,6.280348152E-3,1.971909525E-2,-3.567970991E-3,2.100037874E-2
8.815871250E-1,2.706332602E-2,-2.497126535E-4,-2.046993256E-2,3.393381957E-2
8.915811250E-1,6.813776845E-2,4.105750378E-3,-6.850013137E-3,6.860419343E-2
9.015741250E-1,2.082712434E-2,1.013486926E-3,6.940644979E-3,2.197655152E-2
9.115681250E-1,-2.746702144E-2,8.680392634E-3,7.104367018E-4,2.881477405E-2
9.215611250E-1,-4.659763098E-2,1.997121988E-2,-1.946070313E-2,5.430384703E-2
9.315551250E-1,8.539949823E-3,9.264182299E-3,-5.015800059E-2,5.171634983E-2
9.415491250E-1,3.008471025E-2,1.620524755E-2,-2.867065251E-2,4.460612239E-2
9.515421250E-1,-1.891683899E-2,-2.747296002E-3,1.196457267E-2,2.255095190E-2
9.615361250E-1,-3.391394215E-2,-5.392037323E-3,-4.707008600E-3,3.466100790E-2
9.715291250E-1,-1.783066386E-2,1.719952089E-2,-1.688500464E-2,2.998098521E-2
9.815231250E-1,-2.101699440E-2,2.176380261E-2,-2.443785310E-2,3.889197631E-2
9.915171250E-1,-1.924389934E-2,-1.503210423E-2,-1.417598963E-2,2.823562468E-2
1.001510125E0,4.124205653E-3,8.509288486E-3,2.365198731E-3,9.747370304E-3
1.011504125E0,-5.621111132E-3,1.522699010E-2,1.037646890E-2,1.926471449E-2
1.021497125E0,-2.990733862E-2,-1.454093811E-2,-1.108982921E-2,3.505527202E-2
1.031491125E0,-3.284675220E-2,-3.421735782E-3,-1.085711002E-2,3.476340380E-2
1.041485125E0,-5.477269627E-3,1.682775674E-2,-1.155585229E-2,2.113555303E-2
1.051478125E0,2.172381314E-2,1.303463141E-3,-9.267836809E-3,2.365408786E-2
1.061472125E0,-2.784500739E-2,-1.042629814E-2,7.420701385E-3,3.064504753E-2
1.071465125E0,-5.520626731E-2,1.008991878E-3,4.375003695E-2,7.044725508E-2
1.081459125E0,-2.688838463E-2,2.227310423E-2,1.361290276E-2,3.747515873E-2
1.091453125E0,-4.265850797E-2,-2.903142571E-4,-4.168012261E-2,5.964113686E-2
1.101446125E0,-1.175186193E-2,-3.717486123E-2,2.147097588E-3,3.904723542E-2
1.111440125E0,6.115703350E-2,-1.485466864E-4,1.202830732E-2,6.232884557E-2
1.121433125E0,6.540006554E-2,2.140115647E-2,2.089677930E-2,7.191559953E-2
1.131427125E0,-2.197657730E-3,1.771852523E-3,5.553685427E-3,6.229974533E-3
1.141421125E0,-2.680666979E-2,-1.506761692E-2,5.198174715E-3,3.118736356E-2
1.151414125E0,-6.821310617E-2,1.505936687E-2,-3.835773468E-4,6.985670702E-2
1.161408125E0,-6.275122203E-2,2.275584670E-2,-1.761766076E-3,6.677311019E-2
1.171401125E0,-2.599602643E-2,2.529604163E-2,-7.694935799E-4,3.628050762E-2
1.181395125E0,-4.145712443E-3,2.576699831E-2,-3.172816157E-2,4.108285981E-2
1.191389125E0,-2.827845052E-2,-1.438888310E-2,-3.054059207E-2,4.403905636E-2
1.201382125E0,-5.547392361E-2,-1.913023495E-2,1.240896106E-2,5.997753250E-2
1.211376125E0,-2.132532539E-2,1.999737703E-2,-1.096469879E-2,3.122321589E-2
1.221369125E0,-2.506231746E-2,1.403925614E-2,-2.042490900E-2,3.524765775E-2
1.231363125E0,-1.885482196E-2,1.968078685E-2,-1.477474451E-2,3.100210892E-2
1.241357125E0,-2.387361506E-2,-5.260155201E-3,-2.246500254E-3,2.454924626E-2
1.251350125E0,-2.282394849E-2,-6.611556374E-4,-3.237778723E-2,3.961932429E-2
1.261344125E0,-9.759368375E-4,4.721005373E-3,-1.192188799E-2,1.285969509E-2
1.271337125E0,2.448861424E-2,8.304124307E-3,-1.962033212E-2,3.245933056E-2
1.281331125E0,3.486204989E-2,-9.654968167E-3,1.834446967E-2,4.055983851E-2
1.291325125E0,-4.851873368E-3,-1.314197349E-2,2.099384308E-2,2.523873194E-2
1.301318125E0,-4.681227861E-2,-9.293144289E-4,-3.134692311E-3,4.692631831E-2
1.311312125E0,-3.670445273E-2,-1.345022226E-2,3.287889361E-3,3.922926899E-2
1.321305125E0,-1.458321165E-2,-2.500670495E-2,1.298081875E-4,2.894861318E-2
1.331299125E0,-2.107875561E-2,1.268039977E-2,-1.444554627E-2,2.852683445E-2
1.341293125E0,-6.616409563E-2,2.548180036E-3,-4.026743531E-2,7.749611034E-2
1.351286125E0,-9.694785878E-2,-3.518013842E-2,-1.996590257E-2,1.050484018E-1
1.361280125E0,-6.755109172E-2,4.269767518E-2,2.910100758E-2,8.504769310E-2
1.371273125E0,-2.717670718E-2,4.432390463E-2,-2.003080666E-2,5.571727874E-2
1.381267125E0,1.006289368E-2,2.021154044E-2,-5.107893705E-2,5.584645026E-2
1.391261125E0,1.117074005E-3,2.580375354E-2,-3.782622278E-2,4.580288943E-2
1.401254125E0,3.249178967E-2,8.300771294E-3,2.485008180E-2,4.173901970E-2
1.411248125E0,6.838945454E-2,3.955721788E-2,9.849050045E-3,7.961717632E-2
1.421241125E0,5.331652030E-2,-2.180225719E-3,-2.206914604E-2,5.774471342E-2
1.431235125E0,1.388783153E-2,-3.769604914E-2,-1.086120307E-2,4.161525823E-2
1.441229125E0,-2.355748169E-2,9.418667564E-3,7.866843939E-3,2.656225660E-2
1.451222125E0,-2.244232630E-2,1.741573082E-2,-1.305157006E-2,3.126194445E-2
1.461216125E0,1.242029004E-2,-1.189447917E-2,-8.218261600E-3,1.905995968E-2
1.471209125E0,5.325274911E-2,8.512778543E-3,-1.985948324E-2,5.746931147E-2
1.481203125E0,3.776232367E-2,2.444844204E-2,-1.623830259E-2,4.782679038E-2
1.491197125E0,-3.064310107E-2,-3.717275988E-3,2.423261583E-2,3.924331095E-2
1.501190125E0,-3.603666415E-2,1.491296721E-2,1.547699511E-2,4.195920795E-2
1.511184125E0,-1.091192767E-2,1.909556279E-2,-2.037930071E-2,2.998377197E-2
1.521177125E0,-2.262050193E-3,-1.694428079E-2,-2.120843589E-2,2.724010418E-2
1.531171125E0,-1.097279353E-2,-2.748898504E-2,1.883972883E-2,3.508535135E-2
1.541164125E0,-1.933034677E-2,1.595564453E-2,-9.367824197E-3,2.675819554E-2
1.551158125E0,-1.805411886E-2,4.999373037E-2,-1.440110743E-2,5.507010241E-2
1.561152125E0,5.779884964E-2,1.390302333E-1,-6.503156304E-2,1.640098076E-1
1.571145125E0,-7.552568888E-2,-2.350940662E-2,-1.316284257E-1,1.535671330E-1
1.581139125E0,-1.203284622E-1,-1.240539243E-1,6.650096834E-2,1.851774655E-1
1.591132125E0,8.850782325E-2,1.414514557E-2,1.746803051E-1,1.963337182E-1
1.601126125E0,1.166138905E-1,4.169647655E-2,1.475837231E-3,1.238530327E-1
1.611120125E0,-7.328401258E-2,-3.793710060E-2,-9.067628145E-2,1.226048862E-1
1.621113125E0,-1.306895091E-1,-3.761713000E-2,-4.396170616E-2,1.429245530E-1
1.631107125E0,-3.888416681E-3,3.817969610E-2,7.905435562E-4,3.838533493E-2
1.641100125E0,5.859947965E-2,2.401705457E-2,6.920179725E-3,6.370719592E-2
1.651094125E0,-3.336423079E-2,9.992443873E-3,9.911615252E-3,3.621133728E-2
1.661088125E0,-1.592715945E-1,3.368398212E-3,-7.756916285E-3,1.594959457E-1
1.671081125E0,-8.939899374E-2,8.086644430E-3,-2.531259656E-2,9.326468487E-2
1.681075125E0,-1.550961161E-2,-1.335906051E-3,-1.624064147E-2,2.249646934E-2
1.691068125E0,-4.658010760E-2,7.692834456E-4,-7.149390578E-3,4.713185767E-2
1.701062125E0,-4.696761355E-2,8.660183195E-3,2.156862438E-2,5.240382670E-2
1.711056125E0,-7.007504236E-3,2.468991377E-2,-1.274634540E-2,2.865599900E-2
1.721049125E0,2.155084519E-2,1.318415567E-2,-3.794433653E-2,4.558545343E-2
1.731043125E0,3.460965117E-2,-3.382636182E-2,4.236307740E-3,4.857980045E-2
1.741036125E0,8.521659002E-3,-3.834649706E-3,3.417756021E-2,3.543203116E-2
1.751030125E0,-8.751162216E-3,1.794452925E-2,1.383509696E-2,2.428989251E-2
1.761023500E0,4.611934701E-2,-9.784036316E-4,-2.313509345E-2,5.160604607E-2
1.771016500E0,6.119277461E-2,1.485417528E-2,-3.526046455E-2,7.216995599E-2
1.781010500E0,4.800523851E-2,-9.921354521E-4,-1.265337467E-2,4.965475957E-2
1.791003500E0,3.306647960E-2,1.176307213E-2,-5.768278241E-3,3.556733014E-2
1.800997500E0,2.753952691E-2,3.786680611E-2,-1.805152416E-2,5.018145147E-2
1.810991500E0,-7.586396858E-4,2.346378006E-2,-9.684158564E-3,2.539502778E-2
1.820984500E0,-2.301551789E-2,-2.309138551E-3,4.657307267E-3,2.359526850E-2
1.830978500E0,-7.515610831E-2,-6.916826712E-3,-1.946538091E-2,7.794346773E-2
1.840971500E0,-1.707972423E-1,-5.563031835E-3,-4.200639725E-3,1.709394357E-1
1.850965500E0,5.806405742E-2,-5.779250907E-2,-2.411684096E-2,8.539924406E-2
1.860959500E0,-5.686892308E-3,2.982445434E-4,-1.959986687E-3,6.022561062E-3
1.870952500E0,-4.276854526E-2,2.078190892E-2,1.919056177E-2,5.127683554E-2
1.880946500E0,-6.384393873E-2,-4.774525668E-3,8.037582636E-3,6.452478084E-2
1.890939500E0,8.832127880E-3,-1.109189400E-2,6.329026222E-3,1.552717516E-2
1.900933500E0,1.721349025E-2,1.492514586E-2,-3.741633296E-3,2.308817978E-2
1.910927500E0,1.177548833E-2,4.507216550E-3,1.958758771E-2,2.329486465E-2
1.920920500E0,1.543270245E-2,8.618942052E-3,2.057050467E-3,1.779567149E-2
1.930914500E0,9.281230588E-3,1.280906592E-2,-3.496167183E-2,3.837358347E-2
1.940907500E0,-1.168883990E-2,-2.340165339E-4,-1.674291730E-2,2.042079875E-2
1.950901500E0,1.699765490E-2,1.594917605E-2,-8.090207577E-3,2.467281799E-2
1.960895500E0,5.236430123E-2,2.267524648E-2,-1.859648466E-2,6.001679839E-2
1.970888500E0,2.720296483E-2,1.267694626E-3,-3.856063306E-2,4.720731689E-2
1.980882500E0,-3.117435716E-2,-9.511839291E-3,-2.935477674E-2,4.386363583E-2
1.990875500E0,-2.976219976E-2,3.592601473E-2,6.790371537E-3,4.714420659E-2
2.000869500E0,1.453599721E-1,3.096382816E-1,-6.303298473E-2,3.478197006E-1
2.010862500E0,-1.793514447E-1,-9.875762684E-2,-2.262925082E-1,3.051693118E-1
2.020856500E0,-2.773451328E-1,-2.209888644E-1,1.662456965E-1,3.916555023E-1
2.030850500E0,6.643719714E-2,1.771624116E-3,2.327004719E-1,2.420052674E-1
2.040843500E0,5.497298168E-2,4.824988053E-2,-3.943479180E-2,8.309742770E-2
2.050837500E0,-9.929800093E-2,2.040183077E-2,-1.147019058E-1,1.530779373E-1
2.060830500E0,-4.535544483E-2,8.696174635E-2,-7.122201025E-2,1.212107109E-1
2.070824500E0,-4.032296559E-2,3.442274127E-4,-7.705928564E-2,8.697237234E-2
2.080818500E0,-6.996646687E-2,-6.344161374E-2,1.848480284E-2,9.623841633E-2
2.090811500E0,8.555898104E-2,-2.420336148E-2,6.817853451E-2,1.120466622E-1
2.100805500E0,1.095876752E-1,2.342248410E-3,2.257025242E-2,1.119122915E-1
2.110798500E0,-4.544437733E-3,2.208137037E-2,-4.867631614E-2,5.364347663E-2
2.120792500E0,-9.375131389E-2,6.919375733E-3,-5.722611487E-2,1.100545994E-1
2.130786500E0,-2.557378437E-2,3.619048247E-2,-3.800690174E-5,4.431445490E-2
2.140779500E0,8.962495208E-2,1.515711587E-2,1.509341776E-2,9.214218066E-2
2.150773500E0,6.022449397E-3,-3.169017294E-3,3.877873421E-3,7.832654059E-3
2.160766500E0,-7.020232894E-2,-2.022694420E-2,-8.980738521E-3,7.360808328E-2
2.170760500E0,-8.842451870E-4,1.049472883E-2,-1.872863173E-2,2.148680687E-2
2.180754500E0,-8.033032771E-3,2.693798547E-2,-3.148082435E-2,4.220458480E-2
2.190747500E0,-5.024252940E-2,3.821520880E-4,-2.307896018E-3,5.029695999E-2
2.200741500E0,-2.388909191E-2,-3.956676529E-2,2.918930054E-3,4.631131374E-2
2.210734500E0,-6.847655978E-3,-6.612561364E-3,2.610197067E-3,9.870637716E-3
2.220728500E0,-9.539257251E-3,-6.042165477E-3,-2.599672079E-2,2.834315939E-2
2.230722500E0,-1.618768763E-2,6.340099387E-3,-4.473704696E-3,1.795138225E-2
2.240715500E0,-1.983799472E-2,2.090096371E-2,-7.058174014E-3,2.966840304E-2
2.250709500E0,-5.833898619E-2,-4.060471002E-3,-1.098282516E-2,5.950249728E-2
2.260702500E0,-2.727210816E-2,-2.541642118E-2,9.659600258E-3,3.851065082E-2
2.270696500E0,5.205008648E-3,-3.307788167E-3,1.205754340E-2,1.354318760E-2
2.280690500E0,4.975980520E-4,1.337328569E-2,-1.422042847E-3,1.345788170E-2
2.290683500E0,-7.089858614E-3,1.638606356E-2,-1.145878851E-2,2.121492419E-2
2.300677500E0,-1.821256014E-2,2.580922617E-2,-1.057527423E-2,3.331140836E-2
2.310670500E0,-5.353783742E-3,-2.422519717E-3,4.964286089E-4,5.897291200E-3
2.320664500E0,-4.983070269E-3,-1.865766115E-2,2.761055231E-3,1.950801720E-2
2.330657500E0,1.604468666E-2,9.225261770E-4,2.514302731E-4,1.607315283E-2
2.340651500E0,3.998640351E-2,1.127159539E-2,-2.864550948E-3,4.164333056E-2
2.350645500E0,4.269508962E-2,4.878825378E-3,-1.496828735E-2,4.550520015E-2
2.360638500E0,-4.059758373E-3,3.749408266E-3,7.058758736E-3,8.964696050E-3
2.370632500E0,-4.147411790E-3,2.979951231E-3,1.517060101E-2,1.600713181E-2
2.380625500E0,6.955445744E-4,5.773485918E-3,-5.239105225E-4,5.838784474E-3
2.390619500E0,-8.966705203E-4,2.542807907E-3,-9.933249950E-3,1.029268404E-2
2.400613500E0,1.707255408E-2,6.508745877E-3,8.817601204E-4,1.829244042E-2
2.410606500E0,3.748660918E-2,2.520207505E-2,1.812636852E-5,4.517068500E-2
2.420600500E0,-2.902482932E-2,3.126673403E-2,-5.939016938E-3,4.307344073E-2
2.430593500E0,-1.065127341E-1,-3.653258113E-3,2.274566889E-4,1.065756096E-1
2.440587500E0,-8.936997693E-2,-1.769203003E-2,-4.362256765E-2,1.010095496E-1
2.450581500E0,-5.886801302E-2,3.119545282E-2,-5.112045228E-2,8.397559095E-2
2.460574500E0,-3.587062150E-2,4.680106840E-2,-1.834797800E-2,6.175507904E-2
2.470568500E0,9.336358868E-4,1.013856945E-2,1.548342705E-3,1.029852570E-2
2.480561500E0,-6.189716309E-3,-2.072481634E-2,-2.258077741E-2,3.126854823E-2
2.490555500E0,-1.911935365E-2,-1.743543777E-2,-7.650496960E-3,2.698285155E-2
2.500549500E0,2.114640059E-2,-1.498116950E-2,-2.738251090E-3,2.605961850E-2
2.510542500E0,3.989794610E-2,-1.304135570E-2,2.328478217E-2,4.800108480E-2
2.520536500E0,-3.138392502E-2,-1.982754283E-3,4.095974565E-3,3.171212815E-2
2.530529500E0,-1.002962668E-1,-3.365383241E-3,-6.415565014E-3,1.005575776E-1
2.540523500E0,-1.049792836E-1,-2.191792242E-5,-1.348718762E-2,1.058421215E-1
2.550517500E0,-3.651344977E-2,9.059328754E-3,-1.771238565E-2,4.158163125E-2
2.560510500E0,-1.320831198E-3,1.323943927E-2,-1.176050484E-2,1.775772568E-2
2.570504500E0,5.294065397E-2,1.969834677E-2,-1.734459579E-2,5.908953132E-2
2.580497500E0,3.548815878E-2,1.324937040E-2,-3.312155306E-2,5.031890805E-2
2.590491500E0,2.896845851E-2,-9.762492981E-3,-3.393314660E-2,4.567205158E-2
2.600485500E0,1.829310553E-2,8.516031057E-3,-5.236766338E-3,2.084668359E-2
2.610478500E0,1.941385232E-2,2.216438256E-2,1.168273687E-3,2.948766487E-2
2.620472500E0,1.191116201E-2,-1.392898131E-2,-6.665825844E-5,1.832748603E-2
2.630465500E0,-1.387434639E-3,-1.785535008E-2,4.911661148E-5,1.790924101E-2
2.640459500E0,1.152904646E-2,2.632834928E-2,1.123717904E-2,3.086057487E-2
2.650452500E0,2.614619024E-2,3.769526342E-3,-4.819859862E-3,2.685262821E-2
2.660446500E0,-2.273410236E-2,-2.549596159E-2,4.876577854E-3,3.450600642E-2
2.670440500E0,-4.935596360E-2,-6.017698534E-4,1.264284968E-2,5.095306583E-2
2.680433500E0,-8.341367416E-2,1.891780743E-2,-8.168560266E-4,8.553590900E-2
2.690427500E0,-8.908465108E-2,-2.445855590E-2,-1.126115263E-2,9.306508246E-2
2.700420500E0,-3.538839066E-2,-1.767869107E-3,-1.191662550E-3,3.545255442E-2
2.710414500E0,8.581026513E-3,3.970538084E-2,-7.449937463E-3,4.129955027E-2
2.720408500E0,1.174930377E-2,1.284954876E-2,-1.297321737E-2,2.171316217E-2
2.730401500E0,9.836880527E-3,-4.000984719E-3,8.303630948E-3,1.348044451E-2
2.740395500E0,9.079373740E-3,1.783963569E-2,1.463382661E-2,2.479589704E-2
2.750388500E0,3.804684553E-2,-3.720172187E-3,4.517558813E-3,3.849429144E-2
2.760382500E0,3.012057927E-2,-1.572093364E-2,-1.158041060E-2,3.589572341E-2
2.770376833E0,3.814652229E-2,2.624266930E-3,-8.839820623E-3,3.924520822E-2
2.780369833E0,2.701695029E-2,1.090445420E-2,-2.513074815E-2,3.847567058E-2
2.790363833E0,-6.188674774E-3,1.070303589E-2,-8.790704012E-3,1.517007415E-2
2.800356833E0,-4.263946798E-2,1.263000408E-2,-4.273729920E-3,4.467556379E-2
2.810350833E0,-4.893395908E-2,5.757899433E-3,1.896719813E-2,5.279621542E-2
2.820344833E0,-3.186348807E-3,-1.571494024E-2,4.939727783E-3,1.677835141E-2
2.830337833E0,-1.377150849E-2,-8.717860496E-3,-2.182707131E-2,2.724108257E-2
2.840331833E0,-1.931225695E-4,5.190182302E-2,-6.691553593E-3,5.233176300E-2
2.850324833E0,1.296800969E-2,9.231629753E-3,-6.844165921E-3,1.732728687E-2
2.860318833E0,1.417979032E-2,1.001607028E-2,-7.473326325E-3,1.890075987E-2
2.870312833E0,-9.750031102E-3,3.423580396E-2,-2.399112582E-2,4.292700196E-2
2.880305833E0,-4.429777488E-3,6.791650616E-3,-1.416487992E-2,1.632155844E-2
2.890299833E0,-4.321187384E-2,-1.511968455E-2,1.589682519E-2,4.846214970E-2
2.900292833E0,-8.975733669E-2,-2.198863719E-3,1.065888941E-2,9.041474667E-2
2.910286833E0,-3.508199656E-2,8.893889096E-3,-1.149036348E-2,3.797204497E-2
2.920279833E0,-2.189526446E-3,9.254260305E-3,-3.199888766E-2,3.338209357E-2
2.930273833E0,-5.346931536E-3,1.444367333E-2,-5.050824881E-3,1.620864609E-2
2.940267833E0,2.453270590E-2,5.580262849E-3,5.592277050E-3,2.577336910E-2
2.950260833E0,8.779959753E-4,1.430909601E-2,3.660356998E-4,1.434067947E-2
2.960254833E0,3.440483417E-3,1.606387284E-2,-1.234990418E-2,2.055249547E-2
2.970247833E0,3.754515443E-3,-2.025267195E-2,9.887641668E-4,2.062146362E-2
2.980241833E0,-5.676550046E-3,-6.803929769E-3,-2.294447422E-3,9.153205432E-3
2.990235833E0,2.401802301E-2,4.860784890E-2,-5.651626289E-2,7.831779092E-2
3.000228833E0,1.724656356E-2,8.861272596E-4,-3.815659046E-2,4.188262852E-2
3.010222833E0,-3.118396852E-2,9.207446035E-3,2.363210678E-2,4.019568915E-2
3.020215833E0,-5.396141337E-2,2.924016218E-2,-6.191616654E-3,6.168595735E-2
3.030209833E0,-3.728802312E-2,-1.127790855E-3,-2.465127647E-2,4.471413660E-2
3.040203833E0,-5.429084916E-2,-2.325744644E-2,-1.827722669E-2,6.182606354E-2
3.050196833E0,-2.725089373E-2,1.690051803E-2,7.551094294E-3,3.294325036E-2
3.060190833E0,-5.400287379E-3,3.030512287E-2,-1.647511482E-2,3.491408003E-2
3.070183833E0,-2.456411641E-2,5.391132832E-4,-1.595120430E-2,2.929381124E-2
3.080177833E0,-1.644505648E-2,-8.824197594E-3,-1.693119764E-2,2.519864678E-2
3.090171833E0,-1.310180129E-2,-6.489651063E-3,-3.818816543E-3,1.511145684E-2
3.100164833E0,-1.566344820E-2,-9.838945325E-4,3.426468372E-4,1.569805927E-2
3.110158833E0,2.757239923E-2,1.396706130E-2,1.049867570E-2,3.264258250E-2
3.120151833E0,1.618938698E-2,-2.055198544E-2,7.642310858E-3,2.725592177E-2
3.130145833E0,-1.553700216E-2,-6.641249266E-3,-1.736506104E-2,2.422911416E-2
3.140139833E0,-2.508954355E-2,2.566630743E-2,-9.153816104E-3,3.704101621E-2
3.150132833E0,-4.161788631E-2,3.477025774E-2,-3.043183386E-2,6.218613830E-2
3.160126833E0,-1.065106876E-4,-4.955149814E-4,-1.503377616E-2,1.504231715E-2
3.170119833E0,3.912821498E-2,1.853704406E-2,4.694729447E-3,4.355088626E-2
3.180113833E0,3.663779447E-2,2.073220759E-2,-1.989573598E-2,4.656170879E-2
3.190106833E0,-1.189557552E-2,7.804607637E-3,-4.677772522E-4,1.423500730E-2
3.200100833E0,-5.298390510E-2,4.657727536E-3,-2.017289400E-4,5.318862021E-2
3.210094833E0,-4.049602490E-2,-3.882233251E-2,4.715779424E-3,5.629689254E-2
3.220087833E0,-1.054393681E-2,-4.046401139E-2,2.372858584E-2,4.807865022E-2
3.230081833E0,4.292015260E-2,-1.941867627E-2,1.071619213E-2,4.831212333E-2
3.240074833E0,2.575289190E-2,2.989022638E-2,-9.043303728E-3,4.047738154E-2
3.250068833E0,-3.463353340E-2,-4.469100013E-3,-2.460508347E-3,3.500726484E-2
3.260062833E0,-5.845417634E-2,2.232320756E-2,-1.757614553E-2,6.499336288E-2
3.270055833E0,-5.754409377E-2,3.986202227E-2,-6.505027413E-3,7.030376184E-2
3.280049833E0,-4.169788353E-2,3.242097440E-2,-2.852096379E-2,6.002731418E-2
3.290042833E0,6.651573256E-4,-7.112900298E-3,-6.831886768E-3,9.884860228E-3
3.300036833E0,3.176615020E-2,-1.483119755E-2,-1.102375567E-2,3.675018243E-2
3.310030833E0,4.277554365E-2,-3.757822774E-2,1.294515073E-2,5.839047236E-2
3.320023833E0,1.327902675E-3,-1.193434074E-2,-6.635420322E-3,1.371935192E-2
3.330017833E0,-3.107131826E-2,2.364432198E-2,-1.828424335E-2,4.311373719E-2
3.340010833E0,-6.894824736E-2,2.431592038E-2,-8.090207577E-3,7.355661939E-2
3.350004833E0,-7.846683836E-2,2.066146541E-2,-8.380814195E-3,8.157315074E-2
3.359997833E0,-1.004109453E-2,8.218270736E-3,-8.964366317E-3,1.577096753E-2
3.369991833E0,6.314850379E-2,-3.395880125E-3,-1.313752413E-2,6.458993786E-2
3.379985833E0,5.290526005E-2,1.537557333E-2,3.493711352E-3,5.520489847E-2
3.389978833E0,-2.792158764E-2,4.733302798E-3,1.267091632E-3,2.834827566E-2
3.399972833E0,1.239554901E-3,-1.756980496E-2,5.190573335E-3,1.836236897E-2
3.409965833E0,1.889712291E-2,2.798407062E-2,-4.613453150E-4,3.377013921E-2
3.419959833E0,4.189000111E-3,5.297306947E-2,-1.556470335E-2,5.537105563E-2
3.429953833E0,-5.557334455E-2,9.663967397E-3,-1.484023333E-3,5.642686608E-2
3.439946833E0,-7.200705377E-2,-4.889467310E-2,-7.303757071E-3,8.734443152E-2
3.449940833E0,-2.058587188E-2,-3.064473647E-2,7.238268256E-3,3.762008136E-2
3.459933833E0,2.913340481E-2,2.741695466E-3,-1.723759174E-3,2.931285581E-2
3.469927833E0,1.369342988E-2,-4.292651145E-3,1.314454079E-2,1.946062251E-2
3.479921833E0,-2.744672064E-2,-1.077806298E-2,3.372089267E-2,4.479495192E-2
3.489914833E0,-6.530504828E-2,2.669383680E-2,8.484894633E-3,7.105845264E-2
3.499908833E0,-8.264032507E-2,4.238558918E-2,-2.334910154E-2,9.576607981E-2
3.509901833E0,-3.470797576E-2,3.022985824E-2,-1.358308196E-2,4.798945745E-2
3.519895833E0,4.257379644E-2,2.036450909E-2,-2.117744565E-2,5.172741611E-2
3.529889833E0,9.089610022E-2,6.274902932E-3,-6.179922223E-3,9.132177659E-2
3.539882833E0,5.023337485E-2,1.104674254E-2,-3.328293622E-2,6.126317257E-2
3.549876833E0,2.428098327E-2,2.033483447E-2,-7.408071399E-2,8.056689038E-2
3.559869833E0,2.179063585E-2,4.646337342E-2,-3.499792457E-2,6.211707981E-2
3.569863833E0,-4.727181494E-3,2.282029398E-2,-1.761824548E-2,2.921497280E-2
3.579856833E0,-8.815445043E-3,-3.712932603E-2,2.733690262E-2,4.694257309E-2
3.589850833E0,-1.002103128E-2,-1.651869485E-2,9.133350849E-3,2.137069127E-2
3.599844833E0,-2.559507189E-2,2.733246239E-2,6.203895807E-3,3.795602098E-2
3.609837833E0,-1.635531999E-2,-2.729280182E-2,4.053289890E-3,3.207526590E-2
3.619831833E0,-5.902592439E-2,-3.002983779E-2,5.421596825E-2,8.558751148E-2
3.629824833E0,-7.081146263E-2,2.737218691E-3,4.858159125E-2,8.591813903E-2
3.639818833E0,1.567629380E-2,-9.613544298E-3,-9.885887504E-3,2.087815109E-2
3.649812833E0,2.853251204E-2,-8.487251792E-3,-8.314740658E-4,2.977967487E-2
3.659805833E0,2.620400459E-2,2.416406636E-2,1.753579974E-2,3.972475591E-2
3.669799833E0,4.021753298E-2,1.171141564E-2,-1.137108028E-2,4.340401689E-2
3.679792833E0,5.359925145E-2,-8.851396283E-3,-1.453325450E-2,5.623559779E-2
3.689786833E0,6.620191980E-2,2.140257259E-2,-1.444086850E-2,7.105844765E-2
3.699780833E0,5.857179673E-2,-9.846318299E-3,-2.784561038E-2,6.559712931E-2
3.709773833E0,6.810955564E-2,-8.530502915E-3,-1.043435633E-2,6.943023002E-2
3.719767833E0,6.820197819E-2,4.370238215E-2,-5.759507418E-3,8.120701915E-2
3.729760833E0,-3.247114168E-2,-3.286866099E-3,-1.692418098E-2,3.676420043E-2
3.739754833E0,-8.633974878E-2,-3.011466810E-2,-8.946239948E-5,9.144098347E-2
3.749747833E0,8.404250566E-2,9.760975446E-2,-2.982196927E-2,1.322125439E-1
3.759741833E0,-3.706283223E-2,9.177734870E-3,-3.680529892E-2,5.303314416E-2
3.769735958E0,-7.184223538E-2,-5.135419473E-2,2.743279696E-2,9.247225773E-2
3.779728958E0,-8.638736704E-2,-2.919458130E-2,-1.819419622E-2,9.298456613E-2
3.789722958E0,-1.972789531E-1,-9.146039307E-2,-8.600669503E-3,2.176188419E-1
3.799715958E0,-1.177170043E-1,-6.390812105E-2,-5.496382713E-3,1.340587605E-1
3.809709958E0,2.737520188E-2,4.397051353E-3,-3.805251002E-2,4.708215434E-2
3.819703958E0,-3.309458278E-2,3.406505613E-2,1.528929949E-2,4.989430967E-2
3.829696958E0,-1.138674716E-1,-2.245224830E-2,3.134107590E-2,1.202171684E-1
3.839690958E0,-1.001801996E-1,-5.400209720E-2,-1.954080999E-2,1.154735561E-1
3.849683958E0,-9.400086209E-2,-4.499600552E-2,3.122296214E-2,1.087918929E-1
3.859677958E0,-8.160964368E-2,-7.454900287E-2,5.102689683E-2,1.217433036E-1
3.869671958E0,-7.252767524E-2,-5.606446498E-2,6.186763465E-2,1.105942681E-1
3.879664958E0,-5.563969217E-2,7.789404877E-3,-3.206613064E-3,5.627372869E-2
3.889658958E0,2.794969082E-3,8.707231354E-2,-4.360327184E-2,9.741994125E-2
3.899651958E0,-5.469430704E-3,5.065796494E-2,-1.050335348E-2,5.202369189E-2
3.909645958E0,-3.323612195E-2,6.809990773E-2,-1.648213148E-2,7.754932555E-2
3.919638958E0,-4.523426129E-2,5.939637291E-2,-4.867982447E-2,8.912795757E-2
3.929632958E0,-5.386802237E-2,5.652012753E-2,-3.403547287E-2,8.517453883E-2
3.939626958E0,-5.527725616E-2,1.456350471E-2,6.510874629E-3,5.753314008E-2
3.949619958E0,-9.242494611E-2,-2.556959996E-2,2.175982833E-2,9.833445599E-2
3.959613958E0,-6.977308849E-2,-3.708706163E-2,2.759651899E-2,8.369768144E-2
3.969606958E0,-2.051371358E-2,-2.386533760E-2,9.222813249E-3,3.279370470E-2
3.979600958E0,9.610045105E-3,-1.020313550E-2,-2.351340830E-2,2.737402621E-2
3.989594958E0,2.054400947E-2,-1.259581614E-2,-2.690420866E-2,3.611851815E-2
3.999587958E0,2.451190260E-2,-5.953188214E-2,1.686804771E-2,6.655380826E-2
4.009581958E0,1.097126777E-1,-7.205797023E-2,6.350777864E-2,1.458165309E-1
4.019574958E0,1.173051868E-1,-1.635116299E-2,4.550829470E-2,1.268813314E-1
4.029568958E0,1.023404534E-1,4.465916935E-2,2.368122339E-3,1.116853518E-1
4.039562958E0,9.940263868E-2,3.188708707E-2,-2.281349659E-2,1.068556340E-1
4.049555958E0,2.119631206E-2,-2.566773268E-2,1.277850509E-2,3.565678530E-2
4.059549958E0,-7.375894354E-2,-6.174509894E-2,-1.781061888E-3,9.620816585E-2
4.069542958E0,-9.657258631E-2,-8.449815908E-2,7.449352741E-3,1.285367503E-1
4.079536958E0,-3.748920389E-2,-2.698605141E-2,5.619174242E-2,7.274063029E-2
4.089529958E0,-4.187623275E-2,9.924680125E-3,4.505747437E-2,6.230805840E-2
4.099523958E0,-6.156378044E-2,-1.363955327E-2,1.158187240E-1,1.318715789E-1
4.109517958E0,7.858794881E-3,-6.520694297E-2,2.912398714E-1,2.985537954E-1
4.119510958E0,1.697973867E-2,-1.400051743E-1,4.578521883E-1,4.790807727E-1
4.129504958E0,9.843632234E-3,-1.932365902E-1,5.885643554E-1,6.195524815E-1
4.139497958E0,-1.247382495E-1,-2.487212215E-1,2.178339261E-1,3.533744420E-1
4.149491958E0,-1.509905448E0,-2.679312253E-1,-1.536186343E-1,1.541168481E0
4.159485958E0,-1.496690887E0,-2.355270890E-1,-5.077692837E-1,1.597931871E0
4.169478958E0,-5.970555358E-1,-2.038567418E-1,-6.781425297E-2,6.345326287E-1
4.179472958E0,-3.728862977E-1,1.523036138E-2,2.960497910E-1,4.763629222E-1
4.189465958E0,-5.644175474E-1,-1.281365051E-1,1.475673509E-1,5.972957850E-1
4.199459958E0,-3.834154155E-1,-5.570017431E-2,1.260893583E-1,4.074413044E-1
4.209453958E0,-2.977810784E-1,-9.051535511E-3,2.401410538E-1,3.826528802E-1
4.219446958E0,-3.411084348E-1,-3.303160644E-2,2.443785310E-1,4.209120071E-1
4.229440958E0,-3.217392406E-1,-4.797192765E-3,1.928283083E-1,3.751291891E-1
4.239433958E0,-2.685367410E-1,1.426663061E-2,1.442987573E-1,3.051846152E-1
4.249427958E0,-2.114049307E-1,4.914624956E-2,1.841311598E-1,2.846255129E-1
4.259420958E0,-6.997819785E-2,4.608005189E-2,1.953414416E-1,2.125525774E-1
4.269414958E0,3.811449051E-2,3.530598147E-2,2.251014304E-1,2.310192215E-1
4.279408958E0,6.983278491E-2,2.874076428E-2,2.170831436E-1,2.298428607E-1
4.289401958E0,1.092219319E-1,9.762707683E-3,2.012529767E-1,2.291887900E-1
4.299395958E0,1.554949693E-1,1.939037666E-2,3.521549946E-1,3.854449538E-1
4.309388958E0,2.180761470E-1,-3.959682363E-2,4.689472800E-1,5.186874452E-1
4.319382958E0,1.899928107E-1,-9.772160073E-2,3.931387138E-1,4.474425412E-1
4.329376958E0,1.024899960E-1,-1.307417411E-1,3.176938444E-1,3.585065982E-1
4.339369958E0,-3.225678641E-2,-7.457619242E-2,3.053316611E-1,3.159581175E-1
4.349363958E0,-1.414550371E-1,-3.711828941E-2,3.147515255E-1,3.470674542E-1
4.359356958E0,-1.963750101E-1,-2.182825902E-2,3.225020099E-1,3.782157636E-1
4.369350958E0,-2.107408150E-1,-4.918612939E-2,3.826681048E-1,4.396201142E-1
4.379344958E0,-1.747531760E-1,-4.435049118E-2,3.922943759E-1,4.317412604E-1
4.389337958E0,-1.360104022E-1,-4.541633810E-2,3.672057277E-1,3.942099945E-1
4.399331958E0,-9.126323227E-2,-4.111455982E-2,4.252621472E-1,4.368835983E-1
4.409324958E0,-8.682556104E-2,-2.208302404E-2,4.248756462E-1,4.342184390E-1
4.419318958E0,-7.205944117E-2,-2.902457351E-2,4.082999593E-1,4.156246452E-1
4.429311958E0,-6.841139987E-2,-3.578709768E-2,4.684777486E-1,4.747970482E-1
4.439305958E0,-8.215791151E-2,-3.670748597E-2,4.521739572E-1,4.610408328E-1
4.449299958E0,-1.241458900E-1,2.520279224E-2,3.863220298E-1,4.065613035E-1
4.459292958E0,-1.523081271E-1,1.002699178E-1,4.001816851E-1,4.397694886E-1
4.469286958E0,-9.481165163E-2,1.863753029E-1,3.868897945E-1,4.397825780E-1
4.479279958E0,-3.074963003E-2,2.705485121E-1,3.098585755E-1,4.124977260E-1
4.489273958E0,2.663209386E-2,3.141780233E-1,3.285111934E-1,4.553424019E-1
4.499267958E0,8.466625739E-2,3.332247801E-1,3.959687662E-1,5.244028919E-1
4.509260958E0,9.150731698E-2,3.336082478E-1,4.695916432E-1,5.832532584E-1
4.519254958E0,1.864718733E-1,2.905378583E-1,5.317849678E-1,6.340183425E-1
4.529247958E0,2.738392154E-1,2.170437845E-1,6.292481124E-1,7.197562833E-1
4.539241958E0,2.931840340E-1,1.709089607E-1,6.748096168E-1,7.553375203E-1
4.549234958E0,3.275832768E-1,1.432354503E-1,6.296720356E-1,7.240953458E-1
4.559228958E0,3.772404634E-1,1.217375041E-1,5.939858937E-1,7.141075753E-1
4.569222958E0,3.858372226E-1,1.187722988E-1,5.735773569E-1,7.014044523E-1
4.579215958E0,3.343616981E-1,1.176321375E-1,5.011841494E-1,6.138571630E-1
4.589209958E0,3.187300441E-1,1.017481305E-1,4.168059039E-1,5.344798262E-1
4.599202958E0,2.389917105E-1,6.685720995E-2,3.787007689E-1,4.527705783E-1
4.609196958E0,1.865652095E-1,4.405725332E-2,3.791942739E-1,4.248951828E-1
4.619190958E0,2.439635979E-1,4.749804737E-2,3.791901809E-1,4.533866947E-1
4.629183958E0,2.685839573E-1,2.237245208E-2,3.683786792E-1,4.564435562E-1
4.639177958E0,2.560884574E-1,5.077527470E-2,3.219073480E-1,4.144680534E-1
4.649170958E0,2.514970775E-1,5.838042833E-2,2.765709615E-1,3.783524166E-1
4.659164958E0,2.871730598E-1,6.483719794E-2,2.399071652E-1,3.797731908E-1
4.669157958E0,2.737260718E-1,5.817471597E-2,2.083544201E-1,3.488865493E-1
4.679151958E0,2.250299482E-1,1.878615372E-2,2.179187107E-1,3.138151711E-1
4.689145958E0,1.899074049E-1,2.274512071E-3,2.440534258E-1,3.092443540E-1
4.699138958E0,1.991867168E-1,-5.734930839E-3,2.227613747E-1,2.988826988E-1
4.709132958E0,1.884472089E-1,-2.058859449E-3,2.623259747E-1,3.230038799E-1
4.719125958E0,2.660011690E-1,5.594383875E-2,2.460315388E-1,3.666304040E-1
4.729119958E0,3.868607046E-1,1.072292373E-1,2.204938245E-1,4.580140180E-1
4.739113958E0,4.742113821E-1,1.433491512E-1,2.456924003E-1,5.529829741E-1
4.749106958E0,5.789679050E-1,1.849662518E-1,2.360310459E-1,6.520176409E-1
4.759100958E0,5.495596994E-1,2.276178528E-1,2.007752591E-1,6.278028789E-1
4.769093583E0,4.649328741E-1,1.911677356E-1,1.918746275E-1,5.380739292E-1
4.779087583E0,3.425866109E-1,9.797682256E-2,2.403158855E-1,4.297868874E-1
4.789080583E0,2.766862978E-1,5.458944088E-2,3.412815124E-1,4.427283424E-1
4.799074583E0,2.402031074E-1,1.567724397E-2,3.874505424E-1,4.561372947E-1
4.809068583E0,2.459894389E-1,-6.462061342E-2,4.288997000E-1,4.986397301E-1
4.819061583E0,2.361189734E-1,-4.648823323E-2,4.187068337E-1,4.829376130E-1
4.829055583E0,2.778563987E-1,3.026098553E-3,3.304822898E-1,4.317775810E-1
4.839048583E0,3.921164013E-1,2.733375974E-2,2.656594723E-1,4.744231885E-1
4.849042583E0,4.891088085E-1,5.493822729E-2,2.680620933E-1,5.604488569E-1
4.859036583E0,4.166809197E-1,3.679842845E-2,3.137118906E-1,5.228692604E-1
4.869029583E0,3.073363424E-1,2.816983849E-2,3.871768928E-1,4.951314103E-1
4.879023583E0,2.592619606E-1,1.888899162E-2,4.585351431E-1,5.270939534E-1
4.889016583E0,1.863577064E-1,-1.333090251E-2,5.339887834E-1,5.657304380E-1
4.899010583E0,1.966937564E-2,-8.485848460E-2,5.529945731E-1,5.598132230E-1
4.909004583E0,-1.352807793E-1,-1.107098655E-1,4.844710529E-1,5.150434590E-1
4.918997583E0,-2.106113722E-1,-9.756534303E-2,3.846070415E-1,4.492201271E-1
4.928991583E0,-2.419697705E-1,-1.016454387E-1,3.172395158E-1,4.117305860E-1
4.938984583E0,-2.245696262E-1,-1.084682623E-1,3.275423098E-1,4.116805140E-1
4.948978583E0,-1.685731076E-1,-9.316081820E-2,3.869225389E-1,4.322093032E-1
4.958971583E0,-7.469722979E-2,-6.320204236E-2,4.381640285E-1,4.489564458E-1
4.968965583E0,3.666423485E-3,-1.794879589E-2,4.373115045E-1,4.376950467E-1
4.978959583E0,5.623442709E-2,5.321295150E-3,4.159802771E-1,4.197978298E-1
4.988952583E0,4.346695863E-2,3.082542457E-2,3.822126067E-1,3.859093935E-1
4.998946583E0,-4.904834524E-2,2.592600603E-2,3.624706525E-1,3.666917941E-1
5.008939583E0,-1.550395077E-1,5.196201280E-2,3.286573738E-1,3.670871410E-1
5.018933583E0,-1.795011882E-1,7.154079314E-2,2.945575815E-1,3.522824584E-1
5.028927583E0,-1.208603396E-1,1.038046510E-1,3.330182272E-1,3.691663134E-1
5.038920583E0,-3.146817975E-2,1.194072334E-1,3.807063639E-1,4.002320193E-1
5.048914583E0,1.197340562E-1,1.441806984E-1,3.939397824E-1,4.362486334E-1
5.058907583E0,2.190216418E-1,1.180904221E-1,4.564693218E-1,5.198846691E-1
5.068901583E0,2.030613012E-1,1.204371290E-1,5.524197918E-1,6.007550420E-1
5.078894583E0,1.171226531E-1,1.264138423E-1,5.429619205E-1,5.696541253E-1
5.088888583E0,5.200323567E-2,1.164438279E-1,5.111565757E-1,5.268249676E-1
5.098882583E0,-1.554939095E-2,9.735791305E-2,5.020173776E-1,5.116070701E-1
5.108875583E0,-1.278197687E-1,1.121700980E-1,4.662142915E-1,4.962618157E-1
5.118869583E0,-2.163369658E-1,1.149261283E-1,3.714888132E-1,4.449872313E-1
5.128862583E0,-2.129478830E-1,1.666175977E-1,2.292389202E-1,3.544837194E-1
5.138856583E0,-1.107945771E-1,1.565602041E-1,1.820665079E-1,2.644517898E-1
5.148850583E0,-3.043943524E-2,1.552868815E-1,2.251651651E-1,2.752088777E-1
5.158843583E0,4.956542183E-2,1.258475211E-1,3.179768497E-1,3.455482695E-1
5.168837583E0,1.095846785E-1,6.138768788E-2,4.481528270E-1,4.654226105E-1
5.178830583E0,1.044226835E-1,-7.185904613E-2,5.935286415E-1,6.069135586E-1
5.188824583E0,2.033551969E-2,-1.712832373E-1,6.735431099E-1,6.952782189E-1
5.198817583E0,-1.127806570E-1,-2.184948807E-1,7.557760119E-1,7.947684378E-1
5.208811583E0,-2.373014997E-1,-2.278000849E-1,7.419888622E-1,8.116356030E-1
5.218805583E0,-2.922499413E-1,-2.655038633E-1,5.835971457E-1,7.046190163E-1
5.228798583E0,-3.555016850E-1,-2.510733919E-1,5.108981287E-1,6.711454344E-1
5.238792583E0,-3.664072904E-1,-1.924833592E-1,4.212392628E-1,5.905477648E-1
5.248785583E0,-3.614896724E-1,-3.793973185E-2,4.191295874E-1,5.547826760E-1
5.258779583E0,-3.759765146E-1,1.324865046E-1,4.792284393E-1,6.233545624E-1
5.268773583E0,-2.616862893E-1,2.990330404E-1,5.137802213E-1,6.495156573E-1
5.278766583E0,-7.646469690E-2,4.005882493E-1,5.920966583E-1,7.189549695E-1
5.288760583E0,-1.617175397E-2,3.185755315E-1,7.388126546E-1,8.047335171E-1
5.298753583E0,-4.496439401E-2,2.095590379E-1,9.296143180E-1,9.540018697E-1
5.308747583E0,-1.600022955E-1,6.378243333E-2,1.036729462E0,1.050940964E0
5.318740583E0,-2.987277427E-1,-7.541972637E-2,1.021684576E0,1.067129688E0
5.328734583E0,-3.274565384E-1,-1.515494874E-1,9.243798906E-1,9.923070159E-1
5.338728583E0,-2.963448196E-1,-1.669129004E-1,8.071256751E-1,8.758607331E-1
5.348721583E0,-2.104118725E-1,-1.344255327E-1,7.452913696E-1,7.860042019E-1
5.358715583E0,-1.085550569E-1,-5.589271216E-2,7.471613091E-1,7.570721349E-1
5.368708583E0,-5.782059398E-2,6.168295400E-2,8.055019033E-1,8.099267400E-1
5.378702583E0,-1.702201221E-2,1.766474729E-1,8.169022197E-1,8.359565270E-1
5.388696583E0,-9.755786955E-3,2.975338874E-1,8.130921739E-1,8.658755527E-1
5.398689583E0,-9.562635150E-2,3.643402997E-1,8.668409497E-1,9.451462771E-1
5.408683583E0,-1.625525951E-1,4.195837333E-1,8.627940917E-1,9.730814458E-1
5.418676583E0,-1.941578921E-1,3.657758277E-1,8.467586875E-1,9.425972194E-1
5.428670583E0,-1.707370525E-1,2.086438207E-1,8.342532474E-1,8.767336345E-1
5.438663583E0,-1.263754334E-1,4.941942416E-2,8.364822060E-1,8.474169638E-1
5.448657583E0,-5.178593852E-2,-8.431728825E-2,8.671391577E-1,8.727665823E-1
5.458651583E0,5.735504597E-2,-1.731781554E-1,8.520983648E-1,8.714079975E-1
5.468644583E0,2.008969543E-1,-1.745324437E-1,8.362471479E-1,8.775707678E-1
5.478638583E0,2.676780043E-1,-1.508948917E-1,8.763391668E-1,9.286501588E-1
5.488631583E0,3.222240844E-1,-6.553694520E-2,8.986211514E-1,9.568925883E-1
5.498625583E0,3.955322350E-1,-1.225444838E-2,8.794890618E-1,9.644153308E-1
5.508619583E0,3.669648224E-1,3.928046186E-2,8.710070908E-1,9.459701305E-1
5.518612583E0,1.993747048E-1,9.097003095E-2,8.299017495E-1,8.583488412E-1
5.528606583E0,3.670651753E-2,1.365445454E-1,6.915075105E-1,7.058147196E-1
5.538599583E0,-2.014994368E-2,1.854922454E-1,5.659368002E-1,5.959008770E-1
5.548593583E0,-1.135325724E-1,1.818822110E-1,5.194654691E-1,5.619743386E-1
5.558586583E0,-2.351277973E-1,1.023676978E-1,4.891295296E-1,5.522788456E-1
5.568580583E0,-2.568819246E-1,-3.758173607E-2,4.985376996E-1,5.620858902E-1
5.578574583E0,-1.855321527E-1,-1.220431399E-1,6.061492717E-1,6.455491052E-1
5.588567583E0,-1.205416663E-1,-1.723144303E-1,7.359551203E-1,7.654100178E-1
5.598561583E0,2.451233201E-2,-2.397745978E-1,9.037789804E-1,9.353657881E-1
5.608554583E0,2.227039989E-1,-2.813600504E-1,1.074387285E0,1.132726174E0
5.618548583E0,2.872531667E-1,-2.885965462E-1,1.125721160E0,1.197100864E0
5.628541583E0,2.913973077E-1,-2.643663058E-1,1.064765106E0,1.135132885E0
5.638535583E0,1.913958867E-1,-2.347185287E-1,9.365789366E-1,9.843298622E-1
5.648529583E0,7.706089363E-2,-1.748930341E-1,7.339565420E-1,7.584313814E-1
5.658522583E0,3.104184464E-2,-9.633346260E-2,5.029962015E-1,5.130778799E-1
5.668516583E0,-7.122617640E-2,-1.230893712E-3,3.025349379E-1,3.108087385E-1
5.678509583E0,-2.009620046E-1,3.851334371E-2,8.165636659E-2,2.203106151E-1
5.688503583E0,-2.646156713E-1,1.854293696E-3,7.171843886E-2,2.741686094E-1
5.698497583E0,-2.767301519E-1,-9.999416677E-2,2.430026811E-1,3.816133035E-1
5.708490583E0,-2.038167614E-1,-1.938887192E-1,2.751062340E-1,3.934686107E-1
5.718484583E0,-8.231556706E-2,-2.210204759E-1,2.974455214E-1,3.796047175E-1
5.728477583E0,-5.608210713E-3,-2.184916648E-1,3.266576260E-1,3.930334136E-1
5.738471583E0,4.572793074E-2,-1.587723154E-1,2.460683763E-1,2.963938893E-1
5.748464583E0,1.426940621E-1,-1.156330567E-1,2.632866722E-1,3.210178670E-1
5.758458583E0,1.932766436E-1,-4.531785820E-2,2.239173692E-1,2.992466499E-1
5.768452958E0,1.180200545E-1,1.614059013E-2,1.345748377E-1,1.797210028E-1
5.778445958E0,1.473023258E-2,9.742068839E-2,1.483444458E-1,1.780838142E-1
5.788439958E0,-6.250973202E-2,1.228392840E-1,2.440475786E-1,2.802787486E-1
5.798432958E0,-7.805236213E-2,9.973882617E-2,2.509741902E-1,2.811192787E-1
5.808426958E0,-3.246717654E-2,1.206581173E-1,2.968309790E-1,3.220576484E-1
5.818420958E0,2.066420630E-1,1.510273311E-1,3.698071539E-1,4.497416236E-1
5.828413958E0,4.826087147E-1,1.792608311E-1,4.206364149E-1,6.648162232E-1
5.838407958E0,6.495611934E-1,2.420707811E-1,4.855849475E-1,8.463573408E-1
5.848400958E0,7.925760484E-1,3.361469261E-1,5.238514656E-1,1.007765799E0
5.858394958E0,7.338037835E-1,3.354541773E-1,5.210091341E-1,9.604415732E-1
5.868387958E0,5.731995537E-1,2.202556235E-1,3.857536805E-1,7.251732000E-1
5.878381958E0,3.765897779E-1,1.734421207E-1,1.428392923E-1,4.385260465E-1
5.888375958E0,2.068263964E-1,1.635673063E-1,-9.263860703E-2,2.794876267E-1
5.898368958E0,8.472293884E-2,1.013051308E-1,-2.249885792E-1,2.608842016E-1
5.908362958E0,5.420295820E-2,7.594191927E-2,-2.393253672E-1,2.568691635E-1
5.918355958E0,5.339260720E-2,2.562154882E-2,-8.589150488E-2,1.043292139E-1
5.928349958E0,1.278930051E-1,-3.756236717E-2,8.802515388E-2,1.597372214E-1
5.938342958E0,2.231864673E-1,-1.120658349E-1,1.446145070E-1,2.885902045E-1
5.948336958E0,2.445045385E-1,-1.550662588E-1,1.968418372E-1,3.501067306E-1
5.958330958E0,1.987757307E-1,-2.231977232E-2,1.099878806E-1,2.282702285E-1
5.968323958E0,1.549012211E-1,1.713510467E-1,3.966751099E-3,2.310223033E-1
5.978317958E0,1.850927344E-1,3.726381565E-1,-3.572356403E-2,4.176059016E-1
5.988310958E0,2.787504380E-1,4.916708757E-1,-1.402495605E-1,5.823332344E-1
5.998304958E0,2.670060861E-1,4.431493646E-1,2.109090686E-3,5.173761278E-1
6.008298958E0,2.623895632E-1,3.919398154E-1,2.013108641E-1,5.128266430E-1
6.018291958E0,2.727819657E-1,3.109100510E-1,3.164209056E-1,5.207660225E-1
6.028285958E0,1.933474680E-1,2.032085048E-1,5.682236463E-1,6.336837161E-1
6.038278958E0,1.154725689E-1,8.557100438E-2,7.719383007E-1,7.852038277E-1
6.048272958E0,1.256693821E-1,-7.158453763E-2,7.274415743E-1,7.416794346E-1
6.058265958E0,1.332625763E-1,-1.515020154E-1,6.361226839E-1,6.673558600E-1
6.068259958E0,2.055815242E-2,-2.359214837E-1,5.268294525E-1,5.776078740E-1
6.078253958E0,-1.209746526E-1,-3.204597236E-1,4.704488450E-1,5.819376400E-1
6.088246958E0,-2.710764060E-1,-2.894442645E-1,3.197485560E-1,5.094109728E-1
6.098240958E0,-2.910206008E-1,-1.436387528E-1,1.057305229E-1,3.413268593E-1
6.108233958E0,-7.184152275E-2,1.948401891E-2,-1.413739800E-2,7.576739013E-2
6.118227958E0,7.911121979E-2,1.169830509E-1,-6.880184770E-2,1.570901446E-1
6.128221958E0,1.667070419E-1,1.206821457E-1,-2.173877835E-1,2.993540822E-1
6.138214958E0,2.673922947E-1,1.099004647E-1,-1.938328600E-1,3.480631107E-1
6.148208958E0,2.050892618E-1,1.327342804E-1,-4.931483209E-2,2.492226858E-1
6.158201958E0,-1.145988487E-2,1.213049107E-1,6.915151119E-2,1.401004704E-1
6.168195958E0,-3.124441411E-1,2.611494418E-2,7.189093173E-2,3.216700759E-1
6.178188958E0,-6.729587538E-1,-5.362353567E-2,3.876762450E-2,6.762040347E-1
6.188182958E0,-8.881213063E-1,-1.440183102E-1,2.498339832E-2,9.000693854E-1
6.198176958E0,-1.012985527E0,-2.017299633E-1,9.328706324E-2,1.037081063E0
6.208169958E0,-9.496968725E-1,-1.913650426E-1,3.084640145E-2,9.692761370E-1
6.218163958E0,-7.493918757E-1,-2.616726214E-1,-5.857155919E-3,7.937852672E-1
6.228156958E0,-6.075213209E-1,-2.581701393E-1,-3.652989507E-2,6.611114954E-1
6.238150958E0,-6.374684937E-1,-2.167765302E-1,-9.953422844E-2,6.806358844E-1
6.248143958E0,-7.363682992E-1,-1.859264743E-1,-1.100177014E-1,7.674052518E-1
6.258137958E0,-8.308268521E-1,-1.727090625E-1,-1.438356578E-1,8.606918002E-1
6.268131958E0,-8.723016644E-1,-2.077964861E-1,-2.615950727E-1,9.340886228E-1
6.278124958E0,-9.881677508E-1,-2.660845649E-1,-3.596294904E-1,1.084716493E0
6.288118958E0,-1.042917351E0,-3.293857541E-1,-4.487515819E-1,1.182180002E0
6.298111958E0,-1.001289414E0,-3.309459009E-1,-4.445947963E-1,1.144451927E0
6.308105958E0,-9.166641241E-1,-3.355698790E-1,-2.887279075E-1,1.017960738E0
6.318099958E0,-8.988776249E-1,-2.420753858E-1,-2.586433983E-1,9.661665925E-1
6.328092958E0,-8.355462129E-1,-1.588950156E-1,-3.514784718E-1,9.202837693E-1
6.338086958E0,-6.305104532E-1,-9.707377492E-2,-6.074871147E-1,8.809127902E-1
6.348079958E0,-5.052512533E-1,-3.712819314E-2,-9.448077232E-1,1.072062948E0
6.358073958E0,-4.300429769E-1,-5.285295487E-2,-1.159410478E0,1.237724950E0
6.368066958E0,-4.117811722E-1,1.890572928E-2,-1.274266750E0,1.339282237E0
6.378060958E0,-4.211245112E-1,5.925698077E-2,-1.286907846E0,1.355355690E0
6.388054958E0,-3.097517176E-1,5.810995806E-2,-1.306094899E0,1.343579837E0
6.398047958E0,-3.483742581E-1,3.910340086E-2,-1.223889479E0,1.273106106E0
6.408041958E0,-4.197472727E-1,4.361823706E-2,-1.085976466E0,1.165090215E0
6.418034958E0,-5.259541243E-1,9.285042241E-2,-1.072449517E0,1.198080510E0
6.428028958E0,-6.040704404E-1,8.303583439E-2,-9.842641497E-1,1.157830714E0
6.438021958E0,-6.087256280E-1,6.548645815E-2,-8.038728690E-1,1.010468681E0
6.448015958E0,-4.837211475E-1,8.598027293E-2,-7.538405836E-1,8.998079691E-1
6.458009958E0,-2.880023412E-1,4.162533694E-2,-8.456225735E-1,8.942905311E-1
6.468002958E0,-2.492469958E-1,1.485210591E-2,-8.746060520E-1,9.095495568E-1
6.477996958E0,-3.072367571E-1,5.361723164E-2,-9.647707021E-1,1.013928863E0
6.487989958E0,-3.490979241E-1,6.588531135E-2,-1.100720220E0,1.156630986E0
6.497983958E0,-3.962558645E-1,-8.041365054E-3,-1.087268701E0,1.157253905E0
6.507977958E0,-3.647424419E-1,-7.409445494E-2,-1.044356570E0,1.108696388E0
6.517970958E0,-3.160075074E-1,-8.180583604E-2,-1.037754478E0,1.087882024E0
6.527964958E0,-2.683517497E-1,-1.028655517E-1,-9.328378880E-1,9.761047631E-1
6.537957958E0,-1.319734845E-1,-6.103990646E-2,-7.960662514E-1,8.092368920E-1
6.547951958E0,-1.365002527E-1,3.043389866E-2,-7.493025595E-1,7.622420002E-1
6.557944958E0,-2.037788276E-1,1.149976288E-1,-7.971210891E-1,8.307540526E-1
6.567938958E0,-1.723696317E-1,4.393941365E-2,-7.581599218E-1,7.787479881E-1
6.577932958E0,-1.750635901E-1,2.012209632E-2,-9.441990280E-1,9.605019333E-1
6.587925958E0,-6.928979784E-2,9.230716126E-2,-1.108233308E0,1.114227424E0
6.597919958E0,-4.830604121E-3,1.504620515E-1,-1.154649090E0,1.164421180E0
6.607912958E0,1.440351210E-1,2.512768385E-1,-1.216719623E0,1.250716917E0
6.617906958E0,2.965678543E-1,3.232460681E-1,-1.176456281E0,1.255583487E0
6.627899958E0,2.108954007E-1,3.249530165E-1,-1.141851874E0,1.205776528E0
6.637893958E0,9.627067812E-2,2.512425226E-1,-1.076520934E0,1.109634250E0
6.647887958E0,1.635275453E-1,1.343320321E-1,-1.041946347E0,1.063220835E0
6.657880958E0,2.223547740E-1,-1.148120893E-2,-1.032545779E0,1.056278490E0
6.667874958E0,2.371021827E-1,-7.661747368E-2,-1.114260033E0,1.141780672E0
6.677867958E0,2.452379986E-1,-3.766648415E-3,-1.309747070E0,1.332513884E0
6.687861958E0,1.836717148E-1,1.201757951E-1,-1.436709418E0,1.453379328E0
6.697855958E0,1.756233148E-1,2.800616944E-1,-1.473372629E0,1.510001658E0
6.707848958E0,2.169213950E-1,3.372101692E-1,-1.381911067E0,1.438903675E0
6.717842958E0,1.709396951E-1,4.341471376E-1,-1.293294175E0,1.374886882E0
6.727835958E0,3.351445672E-1,4.352820090E-1,-1.139534622E0,1.265042080E0
6.737829958E0,5.461528923E-1,4.030434586E-1,-1.014728728E0,1.220819971E0
6.747822958E0,6.014979579E-1,2.453716075E-1,-9.276087230E-1,1.132459696E0
6.757816958E0,4.894577046E-1,3.871377530E-2,-9.724913657E-1,1.089406746E0
6.767810500E0,3.038856447E-1,-1.962771423E-1,-1.157501362E0,1.212716209E0
6.777803500E0,1.597906628E-1,-5.303470644E-1,-1.307928001E0,1.420379077E0
6.787797500E0,2.160006778E-1,-6.111142156E-1,-1.341489265E0,1.489869231E0
6.797790500E0,1.730275896E-1,-3.064898301E-1,-1.235985614E0,1.285120617E0
6.807784500E0,1.326660141E-2,-1.133895805E-1,-1.166612493E0,1.172185100E0
6.817777500E0,-2.267404050E-3,1.149942118E-1,-1.150912135E0,1.156644955E0
6.827771500E0,-1.305639401E-2,3.554669672E-1,-1.069824702E0,1.127409476E0
6.837765500E0,-2.335867636E-2,3.922731797E-1,-9.622949910E-1,1.039440006E0
6.847758500E0,-6.499786846E-2,2.311807440E-1,-7.545089203E-1,7.918036184E-1
6.857752500E0,4.874852926E-2,4.431350755E-2,-6.448139852E-1,6.481706423E-1
6.867745500E0,3.113776090E-1,1.440247787E-2,-7.119838750E-1,7.772287212E-1
6.877739500E0,5.094312085E-1,-3.242960818E-2,-6.998234206E-1,8.662128236E-1
6.887732500E0,5.227336241E-1,-3.302208827E-1,-8.162584412E-1,1.023999080E0
6.897726500E0,4.857909156E-1,-3.215076908E-1,-1.112548553E0,1.255836092E0
6.907720500E0,3.316239586E-1,-3.493842184E-1,-1.305505500E0,1.391541732E0
6.917713500E0,2.344579987E-1,-4.934467482E-1,-1.391804556E0,1.495185663E0
6.927707500E0,1.727735281E-1,-5.823074692E-1,-1.484879365E0,1.604306520E0
6.937700500E0,1.499506029E-1,-4.603708034E-1,-1.497642667E0,1.573963157E0
6.947694500E0,1.392228625E-1,-2.408581965E-1,-1.387006330E0,1.414631485E0
6.957688500E0,2.088909021E-1,-1.210925836E-1,-1.268650500E0,1.291422825E0
6.967681500E0,1.887921216E-1,-2.765440643E-2,-1.197409778E0,1.212516972E0
6.977675500E0,1.621800544E-1,5.322647318E-3,-1.095577594E0,1.107529216E0
6.987668500E0,2.360444214E-1,2.402292006E-2,-8.601143128E-1,8.922391499E-1
6.997662500E0,1.526050926E-1,4.126248524E-2,-5.892783004E-1,6.101145977E-1
7.007655500E0,-6.733215004E-2,8.003157154E-2,-4.887938994E-1,4.998581269E-1
7.017649500E0,-2.184595051E-1,2.769402131E-2,-5.092053598E-1,5.547806888E-1
7.027643500E0,-2.957405464E-1,-3.385519590E-2,-5.545540255E-1,6.293955928E-1
7.037636500E0,-2.408001081E-1,-2.237747703E-2,-6.229185015E-1,6.682162098E-1
7.047630500E0,-2.098753539E-1,-3.937456548E-2,-7.180819362E-1,7.491593207E-1
7.057623500E0,-7.211093321E-2,-2.358593936E-1,-8.780956703E-1,9.120754610E-1
7.067617500E0,2.019148084E-1,-2.439937842E-1,-1.016004590E0,1.064221727E0
7.077610500E0,5.258134988E-1,-1.375827916E-1,-8.840896511E-1,1.037797365E0
7.087604500E0,7.717616417E-1,-1.538559582E-1,-6.882535350E-1,1.045457133E0
7.097598500E0,8.395470241E-1,-1.393675445E-1,-5.407879257E-1,1.008322418E0
7.107591500E0,6.618079673E-1,-4.077884741E-3,-3.378363329E-1,7.430611029E-1
7.117585500E0,3.995463851E-1,1.683679435E-1,-1.948075908E-1,4.753262834E-1
7.127578500E0,1.923461323E-1,2.747289058E-1,-1.870050663E-1,3.839842459E-1
7.137572500E0,1.317794301E-2,3.518990693E-1,-2.425781733E-1,4.276105510E-1
7.147565500E0,-7.836789250E-2,4.004076069E-1,-2.640854019E-1,4.860132485E-1
7.157559500E0,-5.291072354E-2,3.474322351E-1,-2.193208730E-1,4.142587935E-1
7.167553500E0,-5.749793731E-2,2.773604818E-1,-3.033740133E-1,4.150549862E-1
7.177546500E0,-1.125064225E-1,2.074196696E-1,-4.360327184E-1,4.957874000E-1
7.187540500E0,-7.343540065E-2,9.370411590E-2,-5.828656590E-1,5.948996519E-1
7.197533500E0,-2.880163014E-2,-5.944261160E-2,-5.969621265E-1,6.006053100E-1
7.207527500E0,2.829167984E-2,-9.591363251E-2,-4.540228468E-1,4.649049252E-1
7.217521500E0,1.051055286E-1,-7.846228849E-2,-2.501228356E-1,2.824268680E-1
7.227514500E0,2.654524809E-1,-1.214042768E-2,-1.103661954E-1,2.877379132E-1
7.237508500E0,4.256653493E-1,4.197664954E-2,-4.972881496E-2,4.306111746E-1
7.247501500E0,4.394363827E-1,1.079564117E-1,-7.351470351E-2,4.584357456E-1
7.257495500E0,2.108030513E-1,2.612352132E-1,-2.184122157E-1,4.004817836E-1
7.267488500E0,5.259789750E-3,3.858830501E-1,-3.546792376E-1,5.241476465E-1
7.277482500E0,-7.099930443E-2,3.238113476E-1,-3.261728919E-1,4.650628403E-1
7.287476500E0,-5.451651514E-3,2.067038607E-1,-2.744525152E-1,3.436282725E-1
7.297469500E0,5.338120513E-2,8.976459090E-2,-2.467238492E-1,2.679176974E-1
7.307463500E0,6.790901441E-2,-1.981365569E-2,-1.446443278E-1,1.610161381E-1
7.317456500E0,1.568935867E-1,-6.163809489E-2,-5.619466603E-2,1.776870642E-1
7.327450500E0,2.954755944E-1,4.394686885E-2,1.158918142E-2,2.989506034E-1
7.337443500E0,2.516473509E-1,-9.690711100E-2,2.102775693E-2,2.704802099E-1
7.347437500E0,3.078477911E-1,-2.131116782E-1,-4.955924571E-2,3.776810409E-1
7.357431500E0,3.621667800E-1,-2.884394936E-1,-5.564151943E-2,4.663240254E-1
7.367424500E0,4.116359420E-1,-3.308196010E-1,-1.410845429E-1,5.466174214E-1
7.377418500E0,5.061047641E-1,-2.874051577E-1,-2.305697465E-1,6.260240929E-1
7.387411500E0,4.949287250E-1,-1.658199462E-1,-2.895663983E-1,5.969081976E-1
7.397405500E0,3.176210831E-1,-1.515218228E-2,-3.139989889E-1,4.468871290E-1
7.407398500E0,4.011252064E-2,4.452442758E-2,-2.438932121E-1,2.511480397E-1
7.417392500E0,-1.157453415E-1,1.196512084E-2,-1.299707401E-1,1.744492518E-1
7.427386500E0,-1.485554207E-1,-3.622982327E-2,-1.680372834E-2,1.538300309E-1
7.437379500E0,-1.166399655E-1,-6.700328071E-2,1.262934262E-1,1.845111126E-1
7.447373500E0,8.127593212E-3,-1.436887100E-1,2.449673456E-1,2.841152998E-1
7.457366500E0,1.832647486E-1,-1.948001722E-1,2.619096529E-1,3.743390729E-1
7.467360500E0,3.045614001E-1,-1.934215815E-1,1.251432788E-1,3.818774605E-1
7.477353500E0,3.316645968E-1,-1.231752157E-1,-2.828122795E-2,3.549272691E-1
7.487347500E0,2.873122601E-1,-9.607450403E-2,-5.275708795E-2,3.075092770E-1
7.497341500E0,2.563742035E-1,-7.772133663E-2,2.667148948E-2,2.692205541E-1
7.507334500E0,2.783397077E-1,-5.589192644E-2,1.382772946E-1,3.157807950E-1
7.517328500E0,2.426845926E-1,-3.300186787E-2,2.456023532E-1,3.468507614E-1
7.527321500E0,2.067385420E-1,-7.177091762E-4,3.087563753E-1,3.715801921E-1
7.537315500E0,1.302125224E-1,-1.344735347E-2,2.483943987E-1,2.807773310E-1
7.547308500E0,-4.723600075E-3,2.134438366E-2,1.223728681E-1,1.243101522E-1
7.557302500E0,-1.275750627E-1,7.695008889E-3,5.035739064E-2,1.373698533E-1
7.567296500E0,-1.536319368E-1,-4.598966673E-2,6.192786098E-3,1.604872956E-1
7.577289500E0,-1.533084396E-1,-2.643566396E-2,6.728741884E-2,1.694990227E-1
7.587283500E0,-1.536148337E-1,1.616766091E-2,1.450021774E-1,2.118597220E-1
7.597276500E0,-8.078461982E-2,2.266168825E-2,1.411950552E-1,1.642429619E-1
7.607270500E0,-2.453265108E-2,5.719432063E-2,8.878704607E-2,1.084259232E-1
7.617264500E0,2.112204328E-2,8.858692512E-2,3.293268800E-2,9.684186054E-2
7.627257500E0,1.178279735E-1,9.048003428E-2,-7.382109761E-3,1.487432805E-1
7.637251500E0,1.777363524E-1,6.395494446E-2,-1.441514075E-2,1.894419229E-1
7.647244500E0,1.497658309E-1,1.028273072E-2,1.565007269E-2,1.509319828E-1
7.657238500E0,1.517829741E-1,-8.725869354E-2,4.684964597E-2,1.812375241E-1
7.667231500E0,8.921060376E-2,-1.192256773E-1,-2.440043092E-3,1.489269880E-1
7.677225500E0,3.976545185E-2,-1.027481871E-1,-4.048787534E-2,1.173786572E-1
7.687219500E0,-3.817500919E-2,-1.076943102E-1,-3.446758211E-2,1.193457582E-1
7.697212500E0,-1.587342902E-1,-2.150324520E-1,-1.071578282E-1,2.879554313E-1
7.707206500E0,-1.405202866E-1,-1.700954668E-1,-1.611773300E-1,2.732335090E-1
7.717199500E0,-1.122575504E-1,-4.378749568E-2,-9.568968415E-2,1.538688339E-1
7.727193500E0,-2.068941510E-1,4.774832647E-2,-4.734139681E-2,2.175460877E-1
7.737186500E0,-2.122999019E-1,1.615721267E-1,-1.597985566E-2,2.672679485E-1
7.747180500E0,-1.659733625E-1,1.833473405E-1,2.892559111E-2,2.489981810E-1
7.757174500E0,-1.224567756E-1,1.019069920E-1,6.950994551E-2,1.738169423E-1
7.767167500E0,-1.156811683E-1,2.165318973E-2,4.737355649E-2,1.268670453E-1
7.777161500E0,-1.099177140E-1,3.506032532E-2,8.412623048E-2,1.427877898E-1
7.787154500E0,-1.193228873E-1,-9.891179234E-2,1.005411190E-1,1.847430938E-1
7.797148500E0,-7.505515248E-2,-1.666722327E-1,5.995734930E-3,1.828902892E-1
7.807141500E0,-1.188091363E-1,-1.310622142E-1,3.442840576E-3,1.769315348E-1
7.817135500E0,-1.326234756E-1,-1.697765012E-1,2.830637097E-2,2.172885116E-1
7.827129500E0,-9.989558637E-2,-1.427927338E-1,-6.741605759E-2,1.868523958E-1
7.837122500E0,9.395159930E-3,-9.615936175E-2,-1.313267094E-1,1.630386349E-1
7.847116500E0,5.337645426E-2,-2.070120821E-2,-1.244603240E-1,1.369961976E-1
7.857109500E0,5.362854235E-2,7.557305133E-2,-9.537276506E-2,1.329784605E-1
7.867103500E0,6.114528425E-2,1.265359760E-1,-5.615607440E-2,1.513393660E-1
7.877096500E0,2.304102637E-2,8.940681439E-2,-1.576409340E-2,9.366415534E-2
7.887090500E0,-4.280439600E-2,7.291786725E-2,6.635127962E-2,1.074789467E-1
7.897084500E0,-1.054241288E-1,1.384690102E-2,9.625861824E-2,1.434283974E-1
7.907077500E0,-1.763070005E-1,-5.413304742E-2,1.010381323E-1,2.102932463E-1
7.917071500E0,-1.783089410E-1,-8.078041714E-2,1.147440058E-1,2.269046961E-1
7.927064500E0,-9.254088543E-2,-9.279776093E-2,1.335123986E-1,1.870850087E-1
7.937058500E0,3.370430119E-2,-6.973318124E-2,1.041166914E-1,1.297651028E-1
7.947051500E0,9.028312929E-2,-2.869696498E-2,5.526378930E-2,1.096751824E-1
7.957045500E0,9.672975764E-2,-2.603830911E-2,-4.143220067E-2,1.084032601E-1
7.967039500E0,9.545506462E-2,2.321975017E-2,-1.397554708E-1,1.708286210E-1
7.977032500E0,6.585477792E-2,3.349133464E-2,-1.471036667E-1,1.646147321E-1
7.987026500E0,1.907727197E-3,1.893544044E-2,-5.087311506E-2,5.431633423E-2
7.997019500E0,-5.632469349E-2,3.130197264E-3,4.481890798E-2,7.204862069E-2
8.007013500E0,-8.537227213E-2,-3.729043510E-3,7.935899556E-2,1.166198130E-1
8.017006500E0,-1.563478953E-1,7.367484413E-2,3.669478655E-2,1.766894292E-1
8.027000500E0,-2.132399149E-1,4.310569206E-2,6.351070225E-2,2.266340030E-1
8.036994500E0,-1.577831675E-1,1.176450653E-2,7.611612976E-2,1.755778937E-1
8.046987500E0,-1.255222515E-1,2.356820768E-2,7.705402315E-2,1.491597081E-1
8.056981500E0,-8.226506174E-2,-2.543323193E-2,4.503174663E-2,9.717122966E-2
8.066974500E0,-1.695385560E-2,-7.232479513E-2,2.419227004E-2,7.812538089E-2
8.076968500E0,1.403112486E-3,-7.389237883E-2,-7.924146652E-3,7.432929754E-2
8.086962500E0,-3.906232417E-3,-5.576374451E-2,-7.464087725E-2,9.325295925E-2
8.096955500E0,1.888665274E-2,-4.154971143E-2,-9.950908542E-2,1.094766745E-1
8.106949500E0,-1.476619296E-2,1.357509686E-2,-9.876181126E-2,1.007780684E-1
8.116942500E0,-1.166843312E-1,9.513114715E-2,-1.114315581E-1,1.873023237E-1
8.126936500E0,-1.932990092E-1,9.509292098E-2,-6.557418466E-2,2.251824688E-1
8.136929500E0,-2.325355804E-1,3.775751799E-2,3.606854975E-2,2.383261769E-1
8.146923500E0,-2.593078613E-1,1.969760673E-2,3.345133603E-2,2.621975486E-1
8.156917500E0,-2.391843762E-1,8.486612253E-3,3.299232960E-2,2.415981834E-1
8.166910500E0,-1.355194554E-1,-1.818283070E-2,-9.860744476E-3,1.370889215E-1
8.176904500E0,-4.062053405E-2,7.875139676E-3,-6.952397883E-2,8.090506315E-2
8.186897500E0,4.304588601E-2,-7.585337050E-3,-1.015146804E-1,1.105247301E-1
8.196891500E0,1.177877008E-1,-2.558292065E-2,-1.100229639E-1,1.631976742E-1
8.206884500E0,1.704048210E-1,-3.600077687E-2,-1.058310950E-1,2.037991159E-1
8.216878500E0,1.312488683E-1,-6.028049933E-2,-1.149486583E-1,1.845892686E-1
8.226871500E0,1.482709171E-1,-1.033791565E-1,-1.096189213E-1,2.113949449E-1
8.236865500E0,1.362870486E-1,-1.069025242E-1,-9.081895351E-2,1.955770733E-1
8.246859500E0,4.845572993E-2,-1.125644196E-1,-5.808097780E-2,1.356175000E-1
8.256852500E0,-8.671625465E-2,-1.062926778E-1,-4.654559076E-2,1.448597052E-1
8.266846500E0,-1.548323701E-1,-2.637837952E-2,-1.666573405E-2,1.579450171E-1
8.276839500E0,-1.454237616E-1,4.259550422E-3,3.486694694E-2,1.496058762E-1
8.286833500E0,-1.206562717E-1,7.501418542E-2,4.897686303E-2,1.502790639E-1
8.296827500E0,-1.184442700E-1,1.263691476E-1,7.380764902E-2,1.882704853E-1
8.306820500E0,-1.048636001E-1,8.156324968E-2,8.830582023E-2,1.595207078E-1
8.316814500E0,-8.806425713E-2,4.366324235E-2,6.663720846E-2,1.187531459E-1
8.326807500E0,-1.254620983E-1,8.214351274E-3,7.654473066E-2,1.471981979E-1
8.336801500E0,-1.057564699E-1,-1.497234385E-3,9.766019583E-2,1.439589750E-1
8.346794500E0,-1.071304925E-2,-1.465403605E-3,6.348965228E-2,6.440382580E-2
8.356788500E0,2.530514136E-2,-1.433344418E-2,1.387485802E-2,3.222281003E-2
8.366782500E0,8.834236532E-2,-2.961570874E-2,-3.229358733E-2,9.861206568E-2
8.376775500E0,1.358553048E-1,-6.864631176E-3,-8.167098463E-2,1.586629659E-1
8.386769500E0,3.736677781E-2,-8.373779263E-3,-1.086605626E-1,1.152107379E-1
8.396762500E0,-6.278762095E-2,-6.708280284E-2,-8.249368787E-2,1.234811577E-1
8.406756500E0,-1.831432727E-1,-7.878927575E-2,3.344899714E-2,2.021584619E-1
8.416749500E0,-2.241638294E-1,-9.584235130E-2,1.337480414E-1,2.780714248E-1
8.426743500E0,-2.190858150E-1,-7.860711671E-2,1.709836954E-1,2.888132566E-1
8.436737500E0,-1.558119249E-1,-1.342221044E-2,1.221413183E-1,1.984339017E-1
8.446730500E0,-3.228437796E-2,2.138743378E-2,1.995888591E-2,4.356673629E-2
8.456724500E0,9.404230423E-2,3.470702559E-2,-2.383208156E-2,1.030364048E-1
8.466717500E0,1.528803503E-1,5.915690202E-2,-4.613453150E-2,1.702948489E-1
8.476711500E0,1.058879592E-1,5.500503173E-2,-7.412105978E-2,1.404697295E-1
8.486704500E0,-2.292664021E-2,7.472270172E-2,-4.788928092E-2,9.166513083E-2
8.496698500E0,-9.498348668E-2,1.139443625E-1,-8.014778495E-3,1.485577907E-1
8.506692500E0,-8.993646249E-2,1.285579249E-1,1.927534640E-2,1.580735472E-1
8.516685500E0,-3.777520582E-2,8.954007609E-2,2.910393119E-2,1.014466865E-1
8.526679500E0,-1.973289102E-2,4.905625725E-2,1.207976282E-2,5.423858436E-2
8.536672500E0,-2.601353154E-3,-3.335385198E-2,-1.729840279E-2,3.766272984E-2
8.546666500E0,-1.951288953E-3,-7.053547405E-2,-8.630431831E-2,1.114786795E-1
8.556659500E0,-3.375480652E-2,-4.328467168E-2,-1.289702815E-1,1.401651999E-1
8.566653500E0,-3.198215000E-2,-7.179978825E-3,-1.036518377E-1,1.087111470E-1
8.576646500E0,-1.826290101E-2,3.186025383E-2,-9.414251089E-2,1.010515793E-1
8.586640500E0,-2.133524738E-2,5.044100583E-2,-1.218752700E-1,1.336153782E-1
8.596634500E0,-2.457226597E-2,-1.154074090E-2,-1.340462494E-1,1.367676202E-1
8.606627500E0,3.268520460E-3,-5.813996159E-2,-9.783502758E-2,1.138535506E-1
8.616621500E0,-7.844989970E-3,-1.294679526E-2,-2.419460893E-2,2.854019054E-2
8.626614500E0,-4.630848616E-2,8.105812334E-3,-7.724171877E-3,4.764286846E-2
8.636608500E0,-2.735035121E-2,1.168357741E-2,-5.369322717E-2,6.138004836E-2
8.646602500E0,-1.705786295E-2,3.702506287E-2,-1.192264813E-1,1.260030945E-1
8.656595500E0,2.373691812E-2,2.762142448E-2,-1.412441719E-1,1.458639793E-1
8.666589500E0,7.291784897E-2,2.102421205E-2,-7.779252648E-2,1.086770784E-1
8.676582500E0,3.603193156E-2,8.056640904E-3,-6.146008372E-3,3.742970710E-2
8.686576500E0,1.004098490E-2,-3.095183406E-2,6.533094049E-3,3.318913568E-2
8.696569500E0,-1.278815299E-2,-2.064502012E-2,2.834730148E-2,3.732724493E-2
8.706563500E0,-2.811889462E-2,-2.137456991E-2,5.310909033E-2,6.378181519E-2
8.716557500E0,-5.636489309E-2,-5.278793201E-2,7.664530277E-2,1.088028923E-1
8.726550500E0,-1.152868467E-1,-1.114646680E-1,1.311325818E-1,2.071501466E-1
8.736544500E0,-1.427344809E-1,-1.269647596E-1,1.877201807E-1,2.678283937E-1
8.746537500E0,-1.626937323E-1,-1.073788712E-1,1.983434021E-1,2.780999419E-1
8.756531500E0,-1.356551839E-1,-1.079433651E-1,1.452787507E-1,2.261857961E-1
8.766525000E0,-5.596004650E-2,-6.904198553E-2,1.066023427E-1,1.387889839E-1
8.776519000E0,-1.567024559E-2,-2.918115098E-2,6.143552542E-2,6.979555826E-2
8.786512000E0,9.778371826E-3,2.082600972E-2,1.811408937E-2,2.928240888E-2
8.796506000E0,-1.295940332E-2,8.099972427E-2,-2.752050519E-2,8.652328977E-2
8.806500000E0,-4.210653082E-3,5.721239218E-2,-2.578446686E-2,6.289535873E-2
8.816493000E0,2.076821364E-2,1.742269266E-2,1.937182546E-3,2.717759360E-2
8.826487000E0,2.035803147E-2,-2.048539113E-2,5.121166885E-2,5.879401093E-2
8.836480000E0,2.503551163E-2,-3.057419529E-2,6.745698810E-2,7.817930355E-2
8.846474000E0,3.357544318E-3,-3.850729549E-2,3.890561879E-2,5.484279427E-2
8.856467000E0,-6.385992721E-2,-5.413403414E-2,2.854142904E-2,8.844883904E-2
8.866461000E0,-9.761553772E-2,-2.435601035E-2,3.327767372E-2,1.059689200E-1
8.876455000E0,-1.064710727E-1,-2.321971362E-2,3.258068562E-2,1.137398150E-1
8.886448000E0,-8.427898899E-2,-2.542891961E-2,3.465118468E-2,9.460593288E-2
8.896442000E0,-6.698928393E-2,-3.002950888E-2,1.565650463E-2,7.506305152E-2
8.906435000E0,-6.555583902E-2,-2.979377473E-2,-4.177075446E-2,8.324681958E-2
8.916429000E0,-3.328556746E-2,-2.156873401E-3,-7.069809973E-2,7.817162151E-2
8.926422000E0,1.883227363E-2,2.340084940E-2,-5.023284495E-2,5.852856563E-2
8.936416000E0,7.603770398E-2,1.148773223E-2,-6.336042881E-3,7.716116807E-2
8.946410000E0,1.024303544E-1,-1.193208408E-2,2.201652110E-2,1.054470451E-1
8.956403000E0,6.630625606E-2,-2.228048634E-2,4.381611049E-2,8.253963413E-2
8.966397000E0,9.308621138E-3,-3.687049538E-2,6.259385884E-2,7.323984586E-2
8.976390000E0,-1.402776271E-2,-6.281287361E-2,1.072788656E-2,6.524816295E-2
8.986384000E0,-5.336680636E-2,1.593859624E-3,-3.567795575E-2,6.421427361E-2
8.996377000E0,-8.454364859E-2,2.408859160E-2,-5.965738714E-2,1.062397882E-1
9.006371000E0,-7.634833731E-2,3.030052733E-2,-9.043245256E-2,1.221688137E-1
9.016365000E0,-7.326312706E-2,3.545276485E-3,-1.062000543E-1,1.290678360E-1
9.026358000E0,-1.984881207E-2,7.434424069E-3,-6.638987124E-2,6.969118312E-2
9.036352000E0,6.310592875E-2,1.704996921E-2,6.531339884E-4,6.537190740E-2
9.046345000E0,1.140440941E-1,-1.529704705E-2,4.427336276E-2,1.232890331E-1
9.056339000E0,9.045730323E-2,-3.995298302E-2,-1.603949726E-2,1.001799882E-1
9.066332000E0,6.363013163E-2,-7.075222302E-2,-1.253742439E-1,1.573955900E-1
9.076326000E0,2.220231637E-2,-4.342789192E-2,-1.820741093E-1,1.884937822E-1
9.086320000E0,-3.733951516E-2,-2.833197081E-2,-1.920108676E-1,1.976489647E-1
9.096313000E0,-5.207808003E-2,-5.040884614E-3,-1.250222415E-1,1.355289556E-1
9.106307000E0,-8.699677482E-2,2.057967748E-2,4.124158144E-2,9.845217110E-2
9.116300000E0,-9.335240588E-2,1.679757049E-2,1.020052618E-1,1.392907157E-1
9.126294000E0,-1.012452699E-1,2.221624006E-2,9.651881933E-2,1.416335006E-1
9.136287000E0,-1.275631490E-1,3.168302838E-2,5.874580622E-2,1.439695837E-1
9.146281000E0,-1.407104672E-1,4.640216952E-2,-2.540615201E-3,1.481858686E-1
9.156275000E0,-1.364589567E-1,6.666832661E-2,2.933723509E-2,1.546815633E-1
9.166268000E0,-1.392559724E-1,8.781604283E-2,5.331783593E-2,1.730510758E-1
9.176262000E0,-9.283580437E-2,1.048578625E-1,6.671906948E-2,1.551292755E-1
9.186255000E0,-2.830644406E-2,1.194211936E-1,6.002927005E-2,1.366242640E-1
9.196249000E0,7.847950123E-3,1.132595257E-1,3.328235149E-2,1.183090250E-1
9.206242000E0,6.098832306E-2,5.865186704E-2,8.096054792E-3,8.500095976E-2
9.216236000E0,1.181123675E-1,1.548476094E-2,-2.964245975E-2,1.227557925E-1
9.226230000E0,1.517616317E-1,-1.576709010E-2,-6.909011543E-2,1.674922029E-1
9.236223000E0,1.364644020E-1,-4.455963878E-2,-8.506646276E-2,1.668664061E-1
9.246217000E0,1.231069129E-1,-3.368396385E-2,-5.352365792E-2,1.384005180E-1
9.256210000E0,1.107300019E-1,3.733045198E-3,-2.137157321E-3,1.108135208E-1
9.266204000E0,4.057350051E-2,4.589783804E-2,3.167904496E-2,6.896653079E-2
9.276197000E0,-2.225479513E-2,3.393454445E-2,7.667980134E-2,8.675610150E-2
9.286191000E0,-9.257246040E-2,3.893374024E-2,1.132020950E-1,1.513281562E-1
9.296185000E0,-7.635473270E-2,4.743843318E-2,1.330878907E-1,1.606014845E-1
9.306178000E0,-9.120424848E-2,6.092938495E-2,1.493244392E-1,1.852792299E-1
9.316172000E0,-6.445751265E-2,8.934554653E-3,1.073741752E-1,1.255540151E-1
9.326165000E0,-3.702164590E-2,-4.587725401E-3,4.394007146E-2,5.764008475E-2
9.336159000E0,-3.366899863E-3,-1.324433631E-2,4.896458387E-3,1.451632749E-2
9.346152000E0,1.545916110E-2,-5.295860675E-2,1.482035279E-2,5.712479801E-2
9.356146000E0,3.508241683E-2,-3.979628677E-2,4.975512743E-2,7.273302632E-2
9.366140000E0,4.813628923E-2,-9.858122366E-3,7.170791388E-2,8.692703739E-2
9.376133000E0,6.620648794E-2,4.777632002E-4,6.305929720E-2,9.143304800E-2
9.386127000E0,3.026467659E-2,3.132644872E-2,5.256062150E-2,6.826357719E-2
9.396120000E0,-9.360149726E-3,9.508107123E-2,3.072127104E-2,1.003584526E-1
9.406114000E0,-5.454940572E-3,1.407862983E-1,-1.385380805E-2,1.415714172E-1
9.416107000E0,6.190037906E-2,1.225564889E-1,-3.071951687E-2,1.406962637E-1
9.426101000E0,1.236774550E-1,8.165990232E-2,-6.586420655E-2,1.621805975E-1
9.436095000E0,1.473572896E-1,6.011504140E-2,-1.603680754E-1,2.259334163E-1
9.446088000E0,1.428300829E-1,2.582722463E-2,-1.777670503E-1,2.294964102E-1
9.456082000E0,1.280078298E-1,1.294230022E-2,-1.634226608E-1,2.079915231E-1
9.466075000E0,1.170641810E-1,6.811058803E-2,-1.507903361E-1,2.026839908E-1
9.476069000E0,1.201066335E-1,8.430151904E-2,-5.964861631E-2,1.583992012E-1
9.486062000E0,9.344216064E-2,9.250801312E-2,1.088342249E-2,1.319379353E-1
9.496056000E0,3.552512415E-2,8.529527161E-2,7.743993938E-2,1.205581271E-1
9.506049000E0,-2.961366221E-2,4.065326932E-2,1.027648151E-1,1.144126939E-1
9.516043000E0,-1.310185611E-1,-3.141681561E-3,6.724005640E-2,1.472988754E-1
9.526037000E0,-1.919800235E-1,-6.029301602E-3,5.001708269E-3,1.921397903E-1
9.536030000E0,-1.655501702E-1,-3.612545047E-2,-1.401109815E-2,1.700241686E-1
9.546024000E0,-9.226197325E-2,-1.949815272E-2,5.574735403E-3,9.446442368E-2
9.556017000E0,-2.943502977E-2,-3.242551513E-2,1.134827614E-2,4.523956654E-2
9.566011000E0,9.165071994E-3,-3.311076312E-2,7.427016377E-2,8.183140232E-2
9.576004000E0,3.327928171E-2,-3.674598623E-2,6.204480529E-2,7.941873808E-2
9.585998000E0,4.271763794E-2,-6.087238373E-2,-2.424781859E-2,7.821892609E-2
9.595992000E0,2.868724398E-2,-7.944058249E-2,-1.226593816E-1,1.489264517E-1
9.605985000E0,-1.440863572E-2,-3.444475056E-2,-1.703428406E-1,1.743867339E-1
9.615979000E0,-2.515325993E-2,1.001148387E-2,-1.956560218E-1,1.975201133E-1
9.625972000E0,3.494939268E-2,1.107162061E-2,-1.456120420E-1,1.501562772E-1
9.635966000E0,9.988016434E-2,4.044208433E-2,-7.013559759E-2,1.285714255E-1
9.645959000E0,1.797909909E-1,4.641111393E-2,5.639639497E-3,1.857702813E-1
9.655953000E0,1.201558232E-1,4.960033153E-2,-2.231589854E-2,1.318924336E-1
9.665947000E0,1.488138311E-2,5.175163181E-2,-6.372354090E-2,8.342887164E-2
9.675940000E0,-1.179125389E-1,6.720172972E-2,-6.132150471E-2,1.489287287E-1
9.685934000E0,-2.148191017E-1,6.197911547E-2,-1.845732093E-2,2.243419932E-1
9.695927000E0,-2.210221204E-1,6.756090408E-2,2.580317795E-2,2.325533433E-1
9.705921000E0,-1.095152063E-1,6.572385510E-2,8.801521361E-2,1.551124862E-1
9.715914000E0,-4.585971236E-3,4.555564801E-2,8.580672026E-2,9.725811760E-2
9.725908000E0,1.035626677E-1,6.570656927E-2,5.227235377E-2,1.333228351E-1
9.735902000E0,1.047513335E-1,9.058256155E-2,-4.364186347E-2,1.451986728E-1
9.745895000E0,7.996776380E-2,6.743995808E-2,-1.641442072E-1,1.946440648E-1
9.755889000E0,2.312778443E-2,3.213637945E-2,-1.986345935E-1,2.025422006E-1
9.765882000E0,-6.763401255E-3,4.337839158E-2,-7.774867237E-2,8.928765036E-2
9.775876083E0,-2.090671957E-2,8.291645983E-2,4.555741131E-2,9.689018505E-2
9.785869083E0,-7.264251821E-2,8.374016806E-3,1.405436754E-1,1.584284833E-1
9.795863083E0,-1.032026254E-1,-7.349781968E-2,1.591407448E-1,2.034170299E-1
9.805857083E0,-1.429923432E-1,-1.198023772E-1,1.909069133E-1,2.669173455E-1
9.815850083E0,-1.177390958E-1,-1.317378966E-1,1.943012220E-1,2.626220344E-1
9.825844083E0,-1.499899254E-1,-9.037163238E-2,1.892059582E-1,2.578040036E-1
9.835837083E0,-1.870144949E-1,-1.416430433E-2,1.508710277E-1,2.407013000E-1
9.845831083E0,-1.969306418E-1,-3.464840725E-4,5.425514460E-2,2.042680064E-1
9.855824083E0,-1.447858304E-1,-2.421386819E-4,8.338246465E-2,1.670797137E-1
9.865818083E0,-6.192201376E-2,1.203126747E-2,6.794581532E-2,9.271311129E-2
9.875811083E0,2.833809212E-2,4.055592231E-4,-2.602829576E-2,3.847965856E-2
9.885805083E0,8.126453005E-2,5.771629427E-2,-8.021327376E-2,1.279424236E-1
9.895799083E0,4.469896697E-2,9.000754271E-2,-9.243863225E-2,1.365439714E-1
9.905792083E0,-1.595047340E-3,8.809228722E-2,-3.505347311E-2,9.482373765E-2
9.915786083E0,-4.958109967E-2,6.884809552E-2,6.615305901E-2,1.075851891E-1
9.925779083E0,-1.052448385E-1,-2.349747464E-2,1.372031611E-1,1.745087814E-1
9.935773083E0,-1.407132447E-1,-9.193129493E-2,2.175175917E-1,2.748917658E-1
9.945766083E0,-1.987462753E-1,-9.857232492E-2,2.551707369E-1,3.381252581E-1
9.955760083E0,-1.761293183E-1,-9.161779281E-2,2.074621350E-1,2.871513436E-1
9.965754083E0,-1.120258545E-1,-9.689516075E-2,1.308033836E-1,1.976056412E-1
9.975747083E0,-4.277472138E-2,-8.205887429E-2,4.539076567E-2,1.030711271E-1
9.985741083E0,1.379047539E-2,-7.345308848E-2,-3.425240457E-2,8.221168188E-2
9.995734083E0,7.927779235E-2,-9.235625960E-2,-5.481004536E-2,1.334870335E-1
1.000572808E1,1.743280104E-1,-1.186946040E-1,-1.161982083E-1,2.407917935E-1
1.001572108E1,2.063310276E-1,-7.463291042E-2,-1.866144723E-1,2.880408401E-1
1.002571508E1,1.508568482E-1,3.251654897E-3,-2.409327668E-1,2.842832391E-1
1.003570908E1,1.004324704E-1,2.648235032E-2,-2.738332951E-1,2.928697142E-1
1.004570208E1,1.333584706E-1,4.305206213E-2,-2.950914323E-1,3.266755503E-1
1.005569608E1,1.302234860E-1,4.475517333E-2,-2.734122956E-1,3.061298176E-1
1.006568908E1,9.123629853E-2,3.831159649E-2,-1.960173798E-1,2.195783545E-1
1.007568308E1,3.230089635E-2,5.706842277E-2,-1.382287627E-1,1.529945869E-1
1.008567608E1,-1.342555432E-1,3.079790611E-2,-2.827538073E-2,1.406149318E-1
1.009567008E1,-2.885621755E-1,-1.722465478E-2,2.663757563E-2,2.903004966E-1
1.010566308E1,-2.974865615E-1,-6.074210046E-2,5.157302678E-2,3.079734309E-1
1.011565708E1,-2.578760243E-1,-9.907460075E-2,7.818604410E-2,2.871042980E-1
1.012565108E1,-2.091226711E-1,-6.198234972E-2,7.144595861E-2,2.295182525E-1
1.013564408E1,-1.372977033E-1,-2.479277909E-2,1.223822236E-3,1.395236144E-1
1.014563808E1,-6.914219219E-2,3.276803406E-2,-8.230540752E-2,1.123768967E-1
1.015563108E1,-2.304329216E-2,7.949982209E-2,-1.000312418E-1,1.298362983E-1
1.016562508E1,-7.304634154E-4,8.802623196E-2,-1.151205665E-1,1.449203089E-1
1.017561808E1,1.961850487E-2,5.380456181E-2,-1.280189395E-1,1.402450194E-1
1.018561208E1,5.859129354E-3,5.315287136E-2,-1.250327665E-1,1.359880503E-1
1.019560608E1,-3.321368326E-2,5.958462585E-2,-1.167279661E-1,1.351994617E-1
1.020559908E1,-3.716501232E-2,5.359285606E-2,-1.086605626E-1,1.267302262E-1
1.021559308E1,-3.999546669E-2,7.389161138E-2,-6.202726364E-2,1.044365311E-1
1.022558608E1,-5.264072835E-2,6.308042027E-2,4.367285371E-3,8.227550598E-2
1.023558008E1,-1.530388098E-2,-5.470033698E-3,4.702681661E-2,4.975591947E-2
1.024557308E1,-8.175211474E-3,-5.511048261E-2,6.731665492E-2,8.738152783E-2
1.025556708E1,2.324633673E-4,-9.887000302E-2,4.122988701E-2,1.071225239E-1
1.026556108E1,1.460470017E-2,-1.031911685E-1,-2.712347925E-2,1.076912143E-1
1.027555408E1,-3.833580762E-5,-8.169612765E-2,-7.279257238E-2,1.094212837E-1
1.028554808E1,-2.484675620E-2,-2.799528083E-2,-4.961128592E-2,6.214802276E-2
1.029554108E1,-2.804350208E-2,-1.932842815E-2,3.603522062E-2,4.958390131E-2
1.030553508E1,-1.905428510E-2,-5.194103591E-2,1.505739892E-1,1.604165303E-1
1.031552808E1,-1.017725791E-1,-1.797450537E-2,1.975856030E-1,2.229816388E-1
1.032552208E1,-1.916628852E-1,2.309443703E-2,1.900999975E-1,2.709354603E-1
1.033551508E1,-1.632975304E-1,3.486681903E-2,1.618322182E-1,2.325326759E-1
1.034550908E1,-1.113361754E-1,2.476979222E-2,1.066304094E-1,1.561388189E-1
1.035550308E1,-2.074599423E-2,1.383548068E-2,8.103597701E-2,8.478588545E-2
1.036549608E1,4.544631422E-2,4.465211615E-2,8.976060748E-2,1.100733647E-1
1.037549008E1,6.884975832E-2,5.185796890E-2,5.435864031E-2,1.019038760E-1
1.038548308E1,6.537483115E-2,3.579071565E-2,8.750358224E-3,7.504273878E-2
1.039547708E1,-1.641605794E-4,-1.982571557E-4,-1.604943752E-2,1.605150147E-2
1.040547008E1,-6.496205427E-2,-4.115021870E-2,-1.387778163E-2,7.814091000E-2
1.041546408E1,-7.940343440E-2,-3.713362008E-2,2.315029621E-2,9.066282231E-2
1.042545808E1,-7.080177817E-2,-3.254874520E-2,4.237067878E-2,8.869941954E-2
1.043545108E1,-6.423656099E-2,-3.590614334E-2,2.314094067E-2,7.714330840E-2
1.044544508E1,-4.327871483E-2,-2.574101474E-2,-6.834225655E-3,5.081686371E-2
1.045543808E1,-3.631380390E-2,-1.217492625E-2,-8.173004150E-2,9.025918716E-2
1.046543208E1,-1.355914492E-2,9.625558499E-3,-1.027946359E-1,1.041308742E-1
1.047542508E1,-6.514419504E-3,1.785803614E-2,-5.412065864E-2,5.736194564E-2
1.048541908E1,-5.032373261E-2,1.863851152E-2,1.772291064E-3,5.369369787E-2
1.049541308E1,-1.047990614E-1,-5.656029973E-3,4.872017026E-2,1.157086381E-1
1.050540608E1,-1.006708541E-1,-2.385251027E-2,9.093063533E-2,1.377386785E-1
1.051540008E1,-6.903920811E-2,2.674706474E-2,1.004159886E-1,1.247605246E-1
1.052539308E1,-1.176096166E-1,5.509210043E-2,7.635937393E-2,1.506582737E-1
1.053538708E1,-1.150363666E-1,5.284501545E-2,6.274413228E-2,1.412897287E-1
1.054538008E1,-5.926752403E-2,6.108683037E-2,4.496918142E-2,9.626249283E-2
1.055537408E1,-7.777052633E-3,5.478365980E-3,-5.792251825E-3,1.113755910E-2
1.056536808E1,3.071988232E-2,-2.946561802E-2,-4.629123688E-2,6.288729941E-2
1.057536108E1,6.551717430E-2,-1.231810264E-1,-1.682770193E-2,1.405319783E-1
1.058535508E1,1.295780630E-1,-1.612634120E-1,2.684690595E-2,2.086075713E-1
1.059534808E1,1.460433837E-1,-1.183233789E-1,-3.364546359E-2,1.909479226E-1
1.060534208E1,1.130256188E-1,-1.086455791E-1,-1.195925170E-1,1.971827135E-1
1.061533508E1,1.537492100E-1,-9.689410094E-2,-1.906396955E-1,2.633833326E-1
1.062532908E1,1.830690861E-1,-5.200330876E-2,-2.721142137E-1,3.320614096E-1
1.063532208E1,1.578617029E-1,2.875898201E-2,-3.076512516E-1,3.469822602E-1
1.064531608E1,9.514077678E-2,7.954411475E-2,-3.311558890E-1,3.536145591E-1
1.065531008E1,4.912925608E-2,1.218277614E-1,-2.722674108E-1,3.022999011E-1
1.066530308E1,-3.677821901E-2,7.953415621E-2,-1.469627488E-1,1.711033866E-1
1.067529708E1,-5.117764536E-2,2.620837172E-2,-7.930812478E-2,9.795819920E-2
1.068529008E1,-7.103245083E-2,-2.724442525E-2,-5.035622120E-3,7.624450976E-2
1.069528408E1,-8.666553006E-2,-9.255484566E-2,3.768647432E-2,1.322784332E-1
1.070527708E1,-1.227826848E-1,-8.542414790E-2,1.787201464E-2,1.506395753E-1
1.071527108E1,-1.240728364E-1,-1.051381634E-1,1.726799726E-2,1.635429175E-1
1.072526508E1,-1.057028217E-1,-3.646729331E-2,-4.841494560E-4,1.118176390E-1
1.073525808E1,-7.402162056E-2,8.029465970E-2,-6.618171036E-2,1.276967168E-1
1.074525208E1,2.334456995E-2,1.014570122E-1,-1.550763452E-1,1.867810673E-1
1.075524508E1,9.989924088E-2,8.356208380E-2,-1.807245719E-1,2.227641153E-1
1.076523908E1,1.409162161E-1,1.079453385E-1,-1.053785205E-1,2.064320921E-1
1.077523233E1,1.035600730E-1,9.632734129E-2,-5.779271007E-2,1.527862649E-1
1.078522633E1,5.894808333E-2,3.699129520E-2,-8.546875119E-3,7.011620015E-2
1.079521933E1,-5.941538550E-3,1.944811335E-2,-2.341809869E-3,2.046985751E-2
1.080521333E1,-7.164311942E-2,1.028123237E-2,-1.916074097E-2,7.487038329E-2
1.081520733E1,-5.748909339E-3,-2.629128342E-2,-1.128454149E-2,2.918257046E-2
1.082520033E1,6.826964144E-2,-3.943995380E-2,4.676603079E-3,7.898179862E-2
1.083519433E1,1.495813147E-1,-6.616490875E-2,-9.260820150E-3,1.638234649E-1
1.084518733E1,1.941378288E-1,-5.129064281E-2,1.128863454E-2,2.011160359E-1
1.085518133E1,1.585913989E-1,-3.403014642E-2,3.730815947E-2,1.664367190E-1
1.086517433E1,7.074619308E-2,-4.936467047E-2,4.816234589E-2,9.880033445E-2
1.087516833E1,-6.674424905E-2,-2.532143134E-2,6.937779844E-2,9.954520874E-2
1.088516233E1,-1.835755281E-1,-2.584365165E-2,5.850373149E-2,1.943979307E-1
1.089515533E1,-2.459244252E-1,-7.368773541E-2,9.709126174E-2,2.744729829E-1
1.090514933E1,-2.749727347E-1,-7.159957593E-2,1.633314443E-1,3.277402398E-1
1.091514233E1,-2.321524781E-1,-2.595432391E-2,1.885557479E-1,3.002027150E-1
1.092513633E1,-1.549587796E-1,3.559218440E-3,2.200745791E-1,2.691797017E-1
1.093512933E1,-4.776013054E-2,6.008882029E-2,2.126509541E-1,2.260799077E-1
1.094512333E1,3.907394551E-2,8.420342286E-2,8.678145111E-2,1.270748201E-1
1.095511733E1,5.965300173E-2,1.222698657E-1,-7.761886418E-2,1.566304209E-1
1.096511033E1,4.901088651E-2,1.614895713E-1,-1.818232638E-1,2.480738759E-1
1.097510433E1,6.760148741E-2,1.510757351E-1,-2.250248319E-1,2.793385290E-1
1.098509733E1,4.280362856E-2,1.131422068E-1,-1.748171300E-1,2.125896011E-1
1.099509133E1,-2.018933930E-2,8.623519326E-2,-7.102554381E-2,1.135286125E-1
1.100508433E1,-8.326815158E-2,5.899676140E-2,5.853647590E-2,1.176465976E-1
1.101507833E1,-1.562081103E-1,7.000099286E-4,1.507564223E-1,2.170920602E-1
1.102507133E1,-1.859720825E-1,-1.663660989E-2,1.927750987E-1,2.683740504E-1
1.103506533E1,-1.943814750E-1,3.026783774E-3,1.308437294E-1,2.343360851E-1
1.104505933E1,-2.009103664E-1,4.506906831E-2,7.793987632E-2,2.201608970E-1
1.105505233E1,-1.080629772E-1,7.301008880E-2,-7.112553120E-3,1.306088378E-1
1.106504633E1,-1.409624822E-2,7.367852605E-2,-7.942623854E-2,1.092508892E-1
1.107503933E1,-1.645863298E-2,4.606394464E-2,-9.038509011E-2,1.027727498E-1
1.108503333E1,-5.763911102E-2,4.001027660E-2,-8.452968836E-2,1.098560766E-1
1.109502633E1,-1.063447363E-1,2.577185880E-2,-3.756192863E-2,1.156904928E-1
1.110502033E1,-1.510531685E-1,-5.855621025E-4,1.700604200E-2,1.520085789E-1
1.111501333E1,-1.095376084E-1,-6.476567005E-2,4.499023139E-2,1.349711102E-1
1.112500733E1,-2.613076821E-2,-9.863769497E-2,1.215811551E-1,1.587267753E-1
1.113500133E1,5.445011269E-2,-1.601211036E-1,9.701173961E-2,1.949739988E-1
1.114499433E1,2.039146292E-1,-1.578203156E-1,-6.489181459E-2,2.658935419E-1
1.115498833E1,2.503423620E-1,-7.324194004E-2,-1.906332636E-1,3.230738634E-1
1.116498133E1,1.982911792E-1,7.613859585E-2,-3.115940291E-1,3.771038537E-1
1.117497533E1,1.633349160E-1,1.260816565E-1,-4.098138034E-1,4.588270179E-1
1.118496833E1,1.363113146E-1,8.172710876E-2,-3.637968010E-1,3.969990015E-1
1.119496233E1,1.000924914E-1,-2.009568335E-2,-2.147688156E-1,2.377982075E-1
1.120495633E1,3.311694838E-2,-8.566031146E-2,-6.587882459E-2,1.130240716E-1
1.121494933E1,-1.087644238E-2,-9.816732301E-2,-4.294662952E-2,1.077011295E-1
1.122494333E1,-1.071085654E-2,-7.064917498E-2,-5.636306584E-2,9.101001903E-2
1.123493633E1,6.782989427E-2,-2.859534220E-2,-7.822171211E-2,1.074114724E-1
1.124493033E1,1.746548697E-1,-1.323508127E-3,-9.990494192E-2,2.012139971E-1
1.125492333E1,1.908548365E-1,-5.626876121E-3,-8.220600486E-2,2.078823167E-1
1.126491733E1,1.638619694E-1,-3.483581051E-2,-3.474590957E-2,1.710893245E-1
1.127491133E1,1.447481889E-1,-1.000370342E-1,2.812159896E-2,1.781860565E-1
1.128490433E1,5.455371805E-2,-1.188765620E-1,3.566392243E-2,1.355716066E-1
1.129489833E1,-8.982324578E-2,-1.174067182E-1,6.123496592E-2,1.600071061E-1
1.130489133E1,-1.436181780E-1,-1.105582217E-1,7.800068736E-2,1.973155053E-1
1.131488533E1,-1.376304464E-1,-6.827561656E-2,1.360939443E-1,2.052443940E-1
1.132487833E1,-1.325652958E-1,-8.679906584E-2,2.311825347E-1,2.802730808E-1
1.133487233E1,-6.579444196E-2,-7.527904602E-2,3.163115627E-1,3.317361120E-1
1.134486533E1,1.932336666E-2,-2.794105704E-2,2.673387927E-1,2.694886366E-1
1.135485933E1,8.322572272E-2,-4.694793858E-2,1.771250260E-1,2.012558190E-1
1.136485333E1,1.055538273E-1,-2.199552594E-2,5.050766408E-2,1.190648468E-1
1.137484633E1,6.927364491E-2,3.031311711E-2,-2.240886927E-2,7.886621818E-2
1.138484033E1,1.127951288E-1,2.384720209E-2,-8.852099776E-2,1.453526648E-1
1.139483333E1,1.089891762E-1,4.089890719E-2,-1.809993911E-1,2.152025574E-1
1.140482733E1,9.143674839E-2,3.541501377E-2,-2.178005970E-1,2.388556095E-1
1.141482033E1,7.842314869E-2,-2.601767027E-2,-2.416619146E-1,2.553969271E-1
1.142481433E1,4.009486936E-2,-5.997861855E-2,-2.444475281E-1,2.548717859E-1
1.143480833E1,8.127629757E-5,-9.687501526E-2,-1.914846182E-1,2.145952800E-1
1.144480133E1,-4.173088375E-2,-1.190417276E-1,-1.612615299E-1,2.047380780E-1
1.145479533E1,-1.245350953E-2,-9.254754578E-2,-1.191171384E-1,1.513572951E-1
1.146478833E1,9.108083569E-2,-5.729076315E-2,-9.945119798E-2,1.465212986E-1
1.147478233E1,1.183212592E-1,3.117386380E-2,-9.293856919E-2,1.536532063E-1
1.148477533E1,1.339099727E-1,7.782603834E-2,-1.347286195E-1,2.052816941E-1
1.149476933E1,1.386386160E-1,4.027521028E-2,-2.416057813E-1,2.814535698E-1
1.150476233E1,1.500828961E-1,4.556333162E-2,-2.718288696E-1,3.138340760E-1
1.151475633E1,2.195028676E-1,3.355286744E-2,-2.464946383E-1,3.317633351E-1
1.152475033E1,2.070546206E-1,2.039497856E-2,-1.147182781E-1,2.375875720E-1
1.153474333E1,1.941732776E-1,-4.454594350E-2,-6.681613326E-3,1.993294930E-1
1.154473733E1,2.020407428E-1,-2.080454861E-2,-6.380013943E-2,2.128937500E-1
1.155473033E1,1.462673686E-1,4.518477922E-2,-1.378206271E-1,2.059862439E-1
1.156472433E1,1.455864969E-1,4.014429661E-2,-2.385225445E-1,2.823118787E-1
1.157471733E1,1.434737517E-1,5.158355176E-2,-3.387707180E-1,3.714985594E-1
1.158471133E1,1.512092160E-1,5.440615808E-2,-3.910594440E-1,4.227904277E-1
1.159470433E1,1.370548977E-1,1.903201086E-2,-4.080964762E-1,4.309164609E-1
1.160469833E1,1.015885746E-1,3.251643933E-2,-3.352927941E-1,3.518505579E-1
1.161469233E1,4.571451869E-2,-3.455923721E-3,-2.121019006E-1,2.169999467E-1
1.162468533E1,1.661391310E-2,-7.700011913E-2,-2.178222317E-1,2.316280748E-1
1.163467933E1,-1.080178075E-2,-9.044798423E-2,-3.254115844E-1,3.379204279E-1
1.164467233E1,-4.910805993E-2,-6.490723662E-2,-3.354471606E-1,3.451801681E-1
1.165466633E1,-2.216102041E-2,2.291012183E-4,-4.461676973E-1,4.467177828E-1
1.166465933E1,4.735480886E-2,6.950711327E-2,-6.358279842E-1,6.413664648E-1
1.167465333E1,1.206062049E-1,1.143064879E-1,-7.296442205E-1,7.483264784E-1
1.168464733E1,1.929434254E-1,1.956982680E-1,-7.832976866E-1,8.301085732E-1
1.169464033E1,2.880063977E-1,2.200186286E-1,-8.371768552E-1,9.122614586E-1
1.170463433E1,4.103732358E-1,2.223843389E-1,-9.448989397E-1,1.053895153E0
1.171462733E1,5.027655654E-1,2.176876361E-1,-1.026945316E0,1.163949227E0
1.172462133E1,5.415855956E-1,2.120606777E-1,-1.050282723E0,1.200574232E0
1.173461433E1,4.424797853E-1,1.927840705E-1,-9.479821765E-1,1.063778297E0
1.174460833E1,3.068334088E-1,1.202053418E-1,-7.465491056E-1,8.160463419E-1
1.175460233E1,2.343169712E-1,9.413008556E-2,-4.435124767E-1,5.103608850E-1
1.176459533E1,1.848593391E-1,1.033784438E-1,-2.484587181E-1,3.264840157E-1
1.177458871E1,1.901013680E-1,5.871655187E-2,-2.923677993E-1,3.536454349E-1
1.178458171E1,2.059759189E-1,2.567717046E-2,-3.847409427E-1,4.371624289E-1
1.179457571E1,2.210204393E-1,4.248488221E-2,-5.321708840E-1,5.778069311E-1
1.180456871E1,1.764182073E-1,-2.282868108E-2,-7.529026902E-1,7.736323374E-1
1.181456271E1,1.545900396E-1,-2.532363318E-2,-8.700920016E-1,8.840811376E-1
1.182455571E1,1.924520400E-1,-7.363423339E-2,-8.769338286E-1,9.008178105E-1
1.183454971E1,1.939149951E-1,-1.069615993E-1,-9.244260836E-1,9.505826598E-1
1.184454371E1,2.258335749E-1,-1.367161063E-1,-1.038314057E0,1.071348766E0
1.185453671E1,1.535378149E-1,-1.368021974E-1,-9.867579871E-1,1.007958346E0
1.186453071E1,9.863335524E-2,-1.768416005E-1,-9.502052879E-1,9.715408276E-1
1.187452371E1,8.401217323E-2,-1.767247475E-1,-8.692400622E-1,8.909926865E-1
1.188451771E1,9.785147287E-2,-8.851162395E-2,-8.211893982E-1,8.317218561E-1
1.189451071E1,1.005986410E-1,-1.577424380E-2,-8.427901822E-1,8.489194335E-1
1.190450471E1,1.271063353E-1,4.401274139E-2,-8.261981231E-1,8.370761498E-1
1.191449771E1,8.626773667E-2,5.010929054E-2,-7.897448266E-1,7.960213279E-1
1.192449171E1,4.617875107E-2,5.110743766E-2,-8.600792295E-1,8.628329666E-1
1.193448571E1,2.851537239E-2,2.793854456E-2,-1.021737785E0,1.022517379E0
1.194447871E1,1.027154792E-2,-3.198146478E-2,-1.156223161E0,1.156710991E0
1.195447271E1,-6.260661308E-2,2.158985708E-2,-1.250326495E0,1.252079093E0
1.196446571E1,-7.623172190E-2,1.577537670E-2,-1.269868475E0,1.272252365E0
1.197445971E1,-2.041438401E-2,7.951379145E-2,-1.210247340E0,1.213028365E0
1.198445271E1,8.467981562E-2,8.493600589E-2,-1.097317725E0,1.103852792E0
1.199444671E1,2.083501443E-1,8.358799428E-2,-1.067253097E0,1.090608045E0
1.200444071E1,1.486370990E-1,8.341979546E-2,-9.791659623E-1,9.938902511E-1
1.201443371E1,3.040274397E-2,5.653232446E-2,-8.189598548E-1,8.214715299E-1
1.202442771E1,-1.344353816E-1,-2.791610587E-2,-8.147469360E-1,8.262352876E-1
1.203442071E1,-3.008790064E-1,-5.788392663E-2,-8.865834886E-1,9.380346516E-1
1.204441471E1,-2.602635887E-1,-4.927397467E-2,-8.669251496E-1,9.064900855E-1
1.205440771E1,-1.919959572E-1,-4.881706502E-2,-7.966041952E-1,8.208677100E-1
1.206440171E1,-1.010081653E-1,-1.725791082E-2,-8.099516344E-1,8.164080689E-1
1.207439471E1,-6.208748996E-2,-1.475974275E-2,-8.208198541E-1,8.232969934E-1
1.208438871E1,-8.419880904E-2,3.589426618E-2,-8.097803110E-1,8.149368011E-1
1.209438271E1,-1.388830662E-1,8.664104484E-2,-8.108982986E-1,8.272552372E-1
1.210437571E1,-1.735494536E-1,1.006613889E-1,-7.522355229E-1,7.785309306E-1
1.211436971E1,-1.595015180E-1,1.579806207E-1,-6.515628415E-1,6.891536456E-1
1.212436271E1,-1.074069196E-1,1.912025997E-1,-4.681245768E-1,5.169480631E-1
1.213435671E1,-1.074873188E-1,2.063860097E-1,-3.356161451E-1,4.083955259E-1
1.214434971E1,-1.462680995E-1,1.107866651E-1,-2.511636400E-1,3.110485753E-1
1.215434371E1,-1.895198075E-1,-8.643169625E-2,-2.463741857E-1,3.226273933E-1
1.216433671E1,-1.903187565E-1,-2.757455722E-1,-3.470948142E-1,4.824226981E-1
1.217433071E1,-2.323918120E-1,-4.040318573E-1,-5.040919697E-1,6.865540110E-1
1.218432471E1,-3.499001621E-1,-3.928562568E-1,-7.175451618E-1,8.897399739E-1
1.219431771E1,-4.578294573E-1,-3.117181362E-1,-8.704498512E-1,1.031726200E0
1.220431171E1,-4.659594259E-1,-2.662424946E-1,-8.255818266E-1,9.846769038E-1
1.221430471E1,-4.344317508E-1,-1.723256314E-1,-8.148516011E-1,9.393669151E-1
1.222429871E1,-4.337137127E-1,-1.248992672E-1,-7.663775986E-1,8.894054392E-1
1.223429171E1,-4.119008209E-1,-9.122065723E-2,-6.727560747E-1,7.940933387E-1
1.224428571E1,-2.979453852E-1,-2.622766754E-2,-6.435480630E-1,7.096572782E-1
1.225427971E1,-2.537829003E-1,-2.032726049E-2,-6.978675270E-1,7.428580236E-1
1.226427271E1,-2.697969621E-1,3.650186498E-2,-7.476244086E-1,7.956538464E-1
1.227426671E1,-2.679758468E-1,3.657824423E-2,-8.144896585E-1,8.582204998E-1
1.228425971E1,-2.673470519E-1,-2.891846482E-2,-9.290664339E-1,9.671996497E-1
1.229425371E1,-3.197935065E-1,-1.255497517E-1,-1.072509159E0,1.126191157E0
1.230424671E1,-3.898848845E-1,-1.877802426E-1,-1.124323676E0,1.204730414E0
1.231424071E1,-4.792087050E-1,-2.191260511E-1,-1.299153085E0,1.401947198E0
1.232423371E1,-4.777042164E-1,-2.159949402E-1,-1.523358137E0,1.611047841E0
1.233422771E1,-4.827050476E-1,-1.173449935E-1,-1.553080119E0,1.630592489E0
1.234422171E1,-5.604986704E-1,1.003484532E-1,-1.510521744E0,1.614281423E0
1.235421471E1,-4.866723834E-1,3.003684348E-1,-1.430482133E0,1.540568187E0
1.236420871E1,-3.126986412E-1,3.704117560E-1,-1.387789273E0,1.470015093E0
1.237420171E1,-1.433359402E-1,3.018749151E-1,-1.449048797E0,1.487083075E0
1.238419571E1,-1.340138704E-1,2.493080992E-1,-1.158738048E0,1.192806820E0
1.239418871E1,-2.551285639E-1,1.200201495E-1,-7.214627963E-1,7.745992428E-1
1.240418271E1,-4.034399729E-1,-9.137098549E-2,-5.680874062E-1,7.027344945E-1
1.241417571E1,-6.440661263E-1,-2.671318012E-1,-4.898727107E-1,8.521477847E-1
1.242416971E1,-8.864109957E-1,-4.568279023E-1,-3.971668607E-1,1.073386091E0
1.243416371E1,-9.630869964E-1,-5.587901505E-1,-4.747828013E-1,1.210455164E0
1.244415671E1,-9.704406010E-1,-5.429803392E-1,-7.313235408E-1,1.330945803E0
1.245415071E1,-8.853495799E-1,-4.149491937E-1,-1.035600364E0,1.424252375E0
1.246414371E1,-7.258596101E-1,-2.655336476E-1,-1.304039018E0,1.515881939E0
1.247413771E1,-5.430520407E-1,-1.261516312E-1,-1.531522604E0,1.629840863E0
1.248413071E1,-4.382646737E-1,-5.560322016E-2,-1.589391913E0,1.649646718E0
1.249412471E1,-5.293311837E-1,-9.715806618E-3,-1.544005240E0,1.632249393E0
1.250411771E1,-7.188164196E-1,5.670227744E-3,-1.504020810E0,1.666975643E0
1.251411171E1,-7.974393969E-1,-2.651142195E-2,-1.292579060E0,1.519003974E0
1.252410571E1,-7.145581848E-1,-1.949026812E-2,-9.784531868E-1,1.211752412E0
1.253409871E1,-6.330769423E-1,4.986658998E-2,-7.025797981E-1,9.470435388E-1
1.254409271E1,-4.582785235E-1,1.524325266E-1,-3.802233839E-1,6.146744682E-1
1.255408571E1,-2.640970963E-1,1.813542988E-1,-1.090423858E-1,3.384182322E-1
1.256407971E1,-1.612944205E-1,1.904665266E-1,3.679828227E-2,2.522845644E-1
1.257407271E1,-1.056572865E-1,2.053468681E-1,2.659003776E-1,3.521843399E-1
1.258406671E1,-9.373846829E-2,1.218108775E-1,5.545335603E-1,5.754409264E-1
1.259406071E1,-8.081129774E-2,-3.121733420E-2,6.844434893E-1,6.899042527E-1
1.260405371E1,-3.575981677E-2,-1.034080271E-1,6.472364867E-1,6.564198765E-1
1.261404771E1,-7.392422788E-2,-1.421327659E-1,5.692802382E-1,5.913936964E-1
1.262404071E1,-1.497911932E-1,-7.311552141E-2,3.421445614E-1,3.805866287E-1
1.263403471E1,-7.961422652E-2,5.404658172E-2,7.374157548E-2,1.212323307E-1
1.264402771E1,1.153633721E-2,1.856336018E-1,-1.900064421E-1,2.658860080E-1
1.265402171E1,3.268878601E-2,2.881358770E-1,-3.193357426E-1,4.313538650E-1
1.266401471E1,-3.717703566E-2,3.427669244E-1,-3.742054296E-1,5.088231520E-1
1.267400871E1,-2.588036120E-2,3.326586600E-1,-3.977726322E-1,5.191865215E-1
1.268400271E1,5.214649245E-2,3.323977645E-1,-3.608772862E-1,4.933963379E-1
1.269399571E1,-4.446515143E-3,2.196489201E-1,-3.333240366E-1,3.992121403E-1
1.270398971E1,-1.482054283E-1,4.218574231E-2,-2.991400445E-1,3.364955453E-1
1.271398271E1,-2.875836074E-1,-1.046483129E-1,-1.632109916E-1,3.468334304E-1
1.272397671E1,-4.309796277E-1,-2.204264170E-1,-3.200239599E-2,4.851344125E-1
1.273396971E1,-4.712220662E-1,-3.284189170E-1,-9.417642474E-2,5.820467505E-1
1.274396371E1,-3.422721038E-1,-3.141083683E-1,-1.371908820E-1,4.843919882E-1
1.275395671E1,-1.434465987E-1,-1.791733422E-1,-1.723776716E-1,2.870436812E-1
1.276395071E1,-6.558719471E-2,-8.147137530E-2,-3.733043736E-1,3.876795332E-1
1.277394512E1,-2.384870958E-1,-3.970926376E-2,-6.391076875E-1,6.833092687E-1
1.278393813E1,-4.526836883E-1,-5.489671206E-2,-8.624350727E-1,9.755667200E-1
1.279393212E1,-5.787212987E-1,-6.115851358E-2,-1.162791923E0,1.300286030E0
1.280392512E1,-5.480118683E-1,-7.436938372E-2,-1.289126864E0,1.402745838E0
1.281391913E1,-4.081261508E-1,-1.576846602E-1,-1.234232034E0,1.309488496E0
1.282391212E1,-3.106426871E-1,-2.269356289E-1,-1.257299885E0,1.314839024E0
1.283390612E1,-1.776339896E-1,-2.310283509E-1,-1.333143534E0,1.364624350E0
1.284389913E1,-3.169636734E-2,-1.774394417E-1,-1.333931154E0,1.346054137E0
1.285389312E1,-3.576438490E-2,-1.208991230E-1,-1.249672776E0,1.256016615E0
1.286388712E1,-8.301529605E-2,4.376143903E-2,-9.029989618E-1,9.078621745E-1
1.287388013E1,-2.026916475E-1,2.025843511E-1,-3.786662704E-1,4.748815301E-1
1.288387412E1,-3.556203835E-1,2.782714414E-1,3.255203426E-2,4.527256202E-1
1.289386712E1,-4.225747669E-1,3.203107293E-1,9.522424579E-2,5.387356066E-1
1.290386112E1,-5.190494397E-1,2.552646578E-1,-4.221104980E-3,5.784377098E-1
1.291385413E1,-5.630537940E-1,1.188441922E-1,-8.742756844E-2,5.820627945E-1
1.292384812E1,-5.359811490E-1,-4.898051754E-2,-1.619047236E-1,5.620391648E-1
1.293384212E1,-4.452784820E-1,-1.440159622E-1,-1.631566125E-1,4.956143704E-1
1.294383513E1,-2.985139538E-1,-2.169574650E-1,-1.777623725E-1,4.096102823E-1
1.295382912E1,-1.196921755E-1,-2.892594925E-1,-2.217568231E-1,3.836318020E-1
1.296382212E1,-2.435712498E-2,-2.636180997E-1,-2.791127461E-1,3.846968899E-1
1.297381613E1,1.096279845E-2,-1.521012362E-1,-3.323902363E-1,3.657023902E-1
1.298380912E1,4.018053107E-2,-5.335670164E-2,-4.379465121E-1,4.430107901E-1
1.299380312E1,8.263007417E-2,4.119155120E-2,-1.864636141E-1,2.080700662E-1
1.300379613E1,1.513127483E-1,1.298317956E-1,1.121127588E-1,2.287380896E-1
1.301379012E1,7.993618883E-2,8.471654344E-2,1.636401772E-1,2.008601370E-1
1.302378412E1,-4.771145247E-3,1.528253864E-2,1.276435483E-1,1.286436754E-1
1.303377713E1,1.972437602E-2,-8.320962461E-2,4.062820852E-2,9.467599465E-2
1.304377112E1,1.141035164E-1,-2.096723825E-1,-7.890817523E-3,2.388396647E-1
1.305376412E1,2.157756331E-1,-1.958329367E-1,-7.589393556E-2,3.011138528E-1
1.306375813E1,2.247324711E-1,-1.926294482E-1,-9.796775937E-2,3.117827284E-1
1.307375112E1,2.311773453E-1,-7.651595140E-2,-1.259232974E-1,2.741429055E-1
1.308374512E1,3.473246098E-1,9.593958867E-2,-1.699499077E-1,3.983989964E-1
1.309373812E1,4.028751319E-1,2.140493158E-1,-2.480377185E-1,5.192766038E-1
1.310373212E1,4.291789046E-1,2.896974124E-1,-2.718072349E-1,5.848062037E-1
1.311372612E1,3.526551508E-1,2.445194123E-1,-1.631899416E-1,4.591147519E-1
1.312371912E1,3.002551816E-1,1.440897102E-1,-7.165821254E-2,3.406610017E-1
1.313371312E1,1.500434274E-1,-4.570492560E-2,2.755675793E-2,1.592524576E-1
1.314370612E1,2.903654203E-3,-1.144519648E-1,3.184574908E-1,3.384122588E-1
1.315370012E1,-2.049083635E-2,-1.135000838E-1,6.514651930E-1,6.615958291E-1
1.316369313E1,-7.789448731E-2,-1.123454414E-1,9.157809752E-1,9.259286387E-1
1.317368712E1,-1.893943848E-1,5.104290359E-3,1.086722571E0,1.103114787E0
1.318368012E1,-2.660002188E-1,1.767911865E-1,1.225631949E0,1.266564217E0
1.319367413E1,-1.853083505E-1,3.280278114E-1,1.390518753E0,1.440653960E0
1.320366812E1,7.610443532E-2,3.864264757E-1,1.574096181E0,1.622620133E0
1.321366112E1,2.940061891E-1,3.296659819E-1,1.668704715E0,1.726179228E0
1.322365513E1,3.516654365E-1,2.036806675E-1,1.633696266E0,1.683483853E0
1.323364812E1,2.416556288E-1,4.599178635E-2,1.515662032E0,1.535494735E0
1.324364212E1,1.083129457E-1,-7.339043191E-2,1.404268481E0,1.410350246E0
1.325363513E1,8.723899573E-3,-2.167017955E-1,1.326870056E0,1.344477564E0
1.326362912E1,-9.433166832E-3,-4.463017082E-1,1.240380966E0,1.318263684E0
1.327362212E1,1.491479994E-1,-5.964209667E-1,1.254269857E0,1.396837847E0
1.328361613E1,3.524980800E-1,-6.359933142E-1,1.419860081E0,1.595225703E0
1.329361012E1,4.846135788E-1,-5.302218243E-1,1.584576731E0,1.739789907E0
1.330360312E1,5.940679009E-1,-3.061273575E-1,1.728718198E0,1.853401532E0
1.331359713E1,6.559915227E-1,-3.922590002E-2,1.769593744E0,1.887677294E0
1.332359012E1,6.658092901E-1,2.396067645E-1,1.642713842E0,1.788636961E0
1.333358412E1,6.670386672E-1,4.428980074E-1,1.487327594E0,1.689154404E0
1.334357712E1,6.157420675E-1,4.491925351E-1,1.325843870E0,1.529305135E0
1.335357112E1,5.657618223E-1,3.734027530E-1,1.201250814E0,1.379318518E0
1.336356412E1,5.565603514E-1,2.368214067E-1,1.172284877E0,1.319126846E0
1.337355812E1,5.342459147E-1,-4.869981464E-2,1.119384533E0,1.241294526E0
1.338355212E1,4.356912410E-1,-2.116819243E-1,1.133112041E0,1.232306371E0
1.339354512E1,3.280631505E-1,-1.971658460E-1,1.148638152E0,1.210730939E0
1.340353912E1,4.048413312E-1,-7.884294223E-2,1.133414342E0,1.206126355E0
1.341353213E1,5.503468077E-1,1.196463114E-1,1.136709833E0,1.268584287E0
1.342352612E1,6.561070052E-1,2.511596566E-1,1.014115355E0,1.233688587E0
1.343351912E1,5.594776735E-1,3.681765848E-1,9.471705830E-1,1.160043697E0
1.344351313E1,4.500745144E-1,4.146199589E-1,9.020844573E-1,1.090061075E0
1.345350712E1,3.433591743E-1,3.299355020E-1,8.750106794E-1,9.961910696E-1
1.346350012E1,2.020857663E-1,3.454676437E-1,1.020208738E0,1.095907122E0
1.347349413E1,1.221674846E-1,4.687782590E-1,1.289765380E0,1.377741879E0
1.348348712E1,1.068154737E-1,4.909209337E-1,1.441726913E0,1.526757807E0
1.349348112E1,6.680560827E-2,4.359133621E-1,1.481085691E0,1.545347299E0
1.350347412E1,9.548123091E-2,4.016195154E-1,1.426991345E0,1.485503012E0
1.351346812E1,2.148103309E-1,3.163830814E-1,1.350305112E0,1.403412138E0
1.352346112E1,2.641750105E-1,2.716159030E-1,1.366407174E0,1.417967631E0
1.353345512E1,2.609587495E-1,2.146081634E-1,1.318588060E0,1.361187204E0
1.354344912E1,1.906912972E-1,1.412695707E-1,1.240462827E0,1.262960129E0
1.355344212E1,1.114012988E-1,9.164335610E-2,1.268532386E0,1.276707942E0
1.356343612E1,9.024563402E-2,4.497276284E-2,1.329560945E0,1.333378840E0
1.357342913E1,7.672336310E-2,2.977656199E-2,1.338838722E0,1.341365812E0
1.358342312E1,7.096736401E-2,1.072224765E-1,1.484447256E0,1.490005598E0
1.359341612E1,2.269585061E-1,2.122818121E-1,1.678578908E0,1.707103068E0
1.360341013E1,4.152049363E-1,3.056546832E-1,1.953310336E0,2.020208205E0
1.361340312E1,5.484656122E-1,2.875720957E-1,2.151427451E0,2.238783668E0
1.362339712E1,6.287167467E-1,2.008585089E-1,2.354424652E0,2.445187995E0
1.363339113E1,6.907611135E-1,-1.487440299E-3,2.446111917E0,2.541774309E0
1.364338412E1,7.323204911E-1,-2.040045302E-1,2.253342081E0,2.378121461E0
1.365337812E1,6.979999664E-1,-2.149101355E-1,1.927449270E0,2.061177093E0
1.366337113E1,4.626052438E-1,-1.421870719E-1,1.629883296E0,1.700217732E0
1.367336512E1,1.807282265E-1,-2.858579479E-2,1.291191516E0,1.304091780E0
1.368335812E1,-9.591187835E-3,9.456773138E-2,1.040445952E0,1.044778840E0
1.369335213E1,-3.585176423E-2,8.663983885E-2,8.789832777E-1,8.839702558E-1
1.370334512E1,-5.972857699E-3,5.499266122E-2,8.851813263E-1,8.869080269E-1
1.371333912E1,9.969473451E-2,-5.126460442E-2,9.004215091E-1,9.073731283E-1
1.372333313E1,3.136914253E-1,-8.535944480E-2,1.077843574E0,1.125804297E0
1.373332612E1,4.774276431E-1,-8.622934604E-2,1.269980156E0,1.359493381E0
1.374332012E1,5.404753920E-1,-1.519920851E-1,1.207699124E0,1.331822967E0
1.375331312E1,5.329856935E-1,-2.500734815E-1,1.126153854E0,1.270760795E0
1.376330712E1,4.035086046E-1,-2.883569565E-1,1.204317679E0,1.302440018E0
1.377329950E1,2.240288318E-1,-3.210056708E-1,1.090640205E0,1.158762105E0
1.378329350E1,2.526396965E-1,-3.832341518E-1,7.004824018E-1,8.374788515E-1
1.379328650E1,3.432508546E-1,-3.069473930E-1,5.985087150E-1,7.551493450E-1
1.380328050E1,3.167717385E-1,-1.826819274E-1,5.461100614E-1,6.572314814E-1
1.381327450E1,2.278424589E-1,-1.323233308E-1,3.543208033E-1,4.415482778E-1
1.382326750E1,1.908447135E-1,-1.059694547E-1,1.478801769E-1,2.636660326E-1
1.383326150E1,2.436767189E-1,-6.530141205E-2,8.096639514E-3,2.524047807E-1
1.384325450E1,3.307915344E-1,-5.095435482E-2,-5.113507032E-2,3.385766987E-1
1.385324850E1,4.182791099E-1,-6.625918597E-3,-1.007416785E-1,4.302908346E-1
1.386324150E1,3.610709021E-1,-2.830034103E-2,-1.223658514E-1,3.822911289E-1
1.387323550E1,1.710420945E-1,-5.206645869E-2,-5.298863769E-2,1.864781755E-1
1.388322850E1,-7.162451796E-2,2.556844879E-2,-6.824987054E-2,1.021854294E-1
1.389322250E1,-3.392972597E-1,9.864325896E-2,-1.139710039E-1,3.712714812E-1
1.390321550E1,-6.122308876E-1,1.521643222E-1,-1.433871764E-1,6.469470790E-1
1.391320950E1,-7.430005766E-1,2.406913133E-1,-1.995210314E-1,8.060960285E-1
1.392320350E1,-7.534915779E-1,3.040606591E-1,-2.183028728E-1,8.413433227E-1
1.393319650E1,-5.989262062E-1,3.144566431E-1,-1.708264053E-1,6.976942322E-1
1.394319050E1,-3.809824256E-1,3.325420080E-1,-4.730748296E-2,5.079072688E-1
1.395318350E1,-3.268045373E-2,4.684234426E-1,1.142697966E-1,4.832660965E-1
1.396317750E1,3.936662789E-1,7.864980139E-1,4.967449433E-1,1.010102868E0
1.397317050E1,5.103639491E-1,4.255595146E-1,9.352422631E-1,1.147279544E0
1.398316450E1,4.971234774E-1,-7.624118708E-2,1.346800291E0,1.437642339E0
1.399315850E1,6.848586416E-1,-3.430309993E-1,1.169972304E0,1.398405097E0
1.400315150E1,7.492149244E-1,-3.832382814E-1,9.475208312E-1,1.267276729E0
1.401314550E1,5.288700577E-1,-3.131852757E-1,9.685316312E-1,1.147101598E0
1.402313850E1,1.270656423E-1,-2.144476939E-1,1.173726801E0,1.199903368E0
1.403313250E1,-1.442749482E-1,6.008237922E-2,7.775212222E-1,7.930727608E-1
1.404312550E1,-2.756195829E-1,-2.096232293E-2,-2.979156375E-3,2.764316351E-1
1.405311950E1,-4.002316057E-1,-1.971609855E-2,-4.912058759E-1,6.339221366E-1
1.406311250E1,-5.961166922E-1,2.635010275E-1,2.930273652E-2,6.524159353E-1
1.407310650E1,-7.438426488E-1,2.077667749E-1,9.342640239E-1,1.212154357E0
1.408310050E1,-8.134266347E-1,-9.393778525E-2,1.415513261E0,1.635287433E0
1.409309350E1,-6.930669630E-1,-2.056495712E-1,7.988799316E-1,1.077424107E0
1.410308750E1,-2.180621868E-1,-1.128038996E-1,1.577514464E-1,2.918241866E-1
1.411308050E1,1.377645304E-1,1.368487833E-2,-5.533454061E-2,1.490914253E-1
1.412307450E1,1.595440200E-1,1.111765830E-1,1.004387927E-1,2.188663473E-1
1.413306750E1,-1.575758837E-1,3.406103617E-2,6.095429957E-2,1.723535319E-1
1.414306150E1,-4.227195586E-1,-9.703189423E-3,-8.852158248E-2,4.319977403E-1
1.415305450E1,-2.997488492E-1,7.394434595E-3,-2.073615628E-1,3.645584563E-1
1.416304850E1,-1.332544816E-1,-1.352444352E-1,-1.924540865E-1,2.703449455E-1
1.417304150E1,-1.690240376E-1,-1.206518406E-1,1.119157076E-3,2.076710005E-1
1.418303550E1,-3.528413846E-1,8.225797199E-2,1.449016052E-1,3.902049357E-1
1.419302950E1,-4.864631993E-1,2.154790148E-1,1.039471221E-1,5.421094486E-1
1.420302250E1,-6.080148990E-1,1.906979484E-1,7.273351550E-3,6.372603287E-1
1.421301650E1,-7.012793773E-1,1.561164735E-1,2.051203251E-2,7.187390777E-1
1.422300950E1,-7.766655553E-1,9.284817489E-2,-2.158792019E-2,7.824935825E-1
1.423300350E1,-6.275043266E-1,3.329407333E-2,-1.358834445E-2,6.285338641E-1
1.424299650E1,-3.779041589E-1,8.990064830E-2,3.319932103E-2,3.898664833E-1
1.425299050E1,-1.785419342E-1,1.478016415E-1,-3.496634960E-4,2.317815130E-1
1.426298450E1,1.285056654E-1,9.677580446E-2,9.383085430E-2,1.862350439E-1
1.427297750E1,5.045357734E-1,-4.413734190E-3,5.235947728E-2,5.072645686E-1
1.428297150E1,8.014089254E-1,-8.258632969E-2,-1.639559269E-3,8.056546753E-1
1.429296450E1,8.439594792E-1,-1.036464838E-1,6.246638954E-2,8.525914883E-1
1.430295850E1,6.999074013E-1,-1.945315657E-1,3.034880340E-2,7.270721768E-1
1.431295150E1,5.623410550E-1,-2.612613064E-1,-4.084397078E-2,6.214122321E-1
1.432294550E1,4.560494918E-1,-2.151742835E-1,-1.125296652E-2,5.043884817E-1
1.433293850E1,2.979176109E-1,-8.472405346E-2,-3.389221609E-2,3.115794448E-1
1.434293250E1,2.111719192E-1,-1.010937220E-2,-7.377665877E-2,2.239168914E-1
1.435292550E1,2.456069944E-1,-8.096806251E-4,-1.025250793E-2,2.458222228E-1
1.436291950E1,2.686146551E-1,8.577135374E-2,1.273757458E-2,2.822637134E-1
1.437291350E1,1.576727282E-1,1.046677823E-1,9.121071696E-3,1.894709155E-1
1.438290650E1,-1.740222741E-2,1.114570301E-1,4.024287701E-2,1.197705983E-1
1.439290050E1,-1.609135658E-1,3.683760022E-2,4.024170756E-2,1.699105043E-1
1.440289350E1,-1.749158017E-1,-8.279217909E-2,-1.120911241E-2,1.938445945E-1
1.441288750E1,-1.818639750E-1,-1.328359488E-1,-7.293992221E-2,2.367279598E-1
1.442288050E1,-2.294322986E-1,-1.086979483E-1,-5.007438540E-2,2.587699126E-1
1.443287450E1,-3.463709654E-1,3.154062812E-2,3.655036032E-2,3.497192957E-1
1.444286750E1,-4.588129590E-1,1.022228787E-1,3.545049906E-2,4.713974821E-1
1.445286150E1,-3.550457484E-1,1.132523811E-1,-2.685450733E-2,3.736371901E-1
1.446285550E1,-1.689290569E-1,8.376494564E-2,-2.477231383E-2,1.901769174E-1
1.447284850E1,-6.278647434E-2,4.680598828E-2,-2.956936955E-2,8.370955451E-2
1.448284250E1,1.299901364E-2,9.449805815E-2,-1.745276928E-2,9.697142107E-2
1.449283550E1,1.070702502E-2,4.686536950E-2,-1.222009599E-2,4.960175389E-2
1.450282950E1,-9.400624564E-3,-6.375015944E-3,-3.587442219E-2,3.762959923E-2
1.451282250E1,1.805233386E-2,-2.796748371E-3,-3.452839315E-2,3.906300671E-2
1.452281650E1,1.728582899E-2,-5.305996458E-3,-3.138551474E-2,3.622159601E-2
1.453280950E1,3.418521869E-2,-5.426539093E-2,-5.039130449E-3,6.433315370E-2
1.454280350E1,1.283274349E-1,-1.107155300E-1,1.099276543E-3,1.694906120E-1
1.455279750E1,2.265329019E-1,-8.301452860E-2,-8.478462696E-3,2.414134460E-1
1.456279050E1,3.439354539E-1,-3.746307186E-2,-6.976312995E-3,3.460400947E-1
1.457278450E1,2.680889174E-1,8.417980559E-3,-3.525871038E-3,2.682442204E-1
1.458277750E1,-3.458353970E-2,3.304481521E-2,4.948089302E-2,6.882107093E-2
1.459277150E1,-3.138582537E-1,6.469522024E-2,4.022708952E-2,3.229716608E-1
1.460276450E1,-3.215969340E-1,7.742884794E-2,-3.444302380E-2,3.325750086E-1
1.461275850E1,-1.202712508E-1,8.246812457E-2,-6.721315920E-2,1.605732671E-1
1.462275150E1,3.154063040E-2,5.491818231E-2,2.697905302E-3,6.338845957E-2
1.463274550E1,1.623765848E-2,-3.145100584E-2,4.088607073E-2,5.407862887E-2
1.464273950E1,-5.515876325E-2,-6.571493353E-2,3.642581463E-2,9.320827015E-2
1.465273250E1,-8.517599755E-2,-3.597326755E-2,-1.553605199E-3,9.247399756E-2
1.466272650E1,-1.758123443E-1,2.127013315E-2,-2.051027834E-2,1.782780707E-1
1.467271950E1,-2.328149768E-2,3.673450193E-2,-1.387018025E-2,4.564902701E-2
1.468271350E1,2.607591402E-1,-1.070817048E-2,-2.503719270E-2,2.621771445E-1
1.469270650E1,1.572218714E-1,1.666547824E-3,-2.301756442E-2,1.589065841E-1
1.470270050E1,8.594994963E-2,-2.459095879E-2,2.029743969E-2,9.167385207E-2
1.471269350E1,6.145354215E-2,3.323027473E-2,-2.157271743E-2,7.311751595E-2
1.472268750E1,1.389032573E-2,4.912137148E-2,-5.625021458E-2,7.596010088E-2
1.473268150E1,3.949922081E-3,4.041605509E-2,2.029627025E-2,4.539821560E-2
1.474267450E1,2.818953630E-2,1.378416223E-2,-1.602078617E-2,3.523235266E-2
1.475266850E1,-3.318377109E-3,-4.240597221E-3,-3.887989104E-2,3.925099003E-2
1.476266150E1,-7.995705608E-2,2.546566113E-2,-2.105348468E-2,8.651520058E-2
1.477265600E1,-1.171225800E-1,3.790762698E-2,3.504821062E-3,1.231542557E-1
1.478264900E1,-5.677127458E-2,-2.835543277E-2,-1.872278452E-3,6.348632618E-2
1.479264300E1,1.807486734E-2,-3.632550290E-2,-3.779523253E-2,5.545018118E-2
1.480263600E1,6.627678243E-2,-2.776705669E-3,-2.882151067E-2,7.232566254E-2
1.481263000E1,5.837668246E-2,7.438352667E-3,-1.475018620E-2,6.066905420E-2
1.482262400E1,-2.588093678E-2,-3.199655791E-3,-7.367491722E-5,2.607807727E-2
1.483261700E1,-9.353212553E-2,2.859737045E-2,-8.300122619E-3,9.815783279E-2
1.484261100E1,-1.297400948E-1,1.342347125E-2,-6.350076199E-3,1.305871558E-1
1.485260400E1,-8.203396881E-2,-7.037530602E-3,-9.789993167E-3,8.291527508E-2
1.486259800E1,2.013672349E-2,-2.980642847E-2,-9.048566222E-3,3.709160770E-2
1.487259100E1,5.885693986E-2,2.279167917E-2,3.667958379E-3,6.322225817E-2
1.488258500E1,-2.168305621E-2,1.719333106E-2,1.272354126E-3,2.770170473E-2
1.489257800E1,-5.995172136E-2,-8.358105985E-3,6.512044072E-3,6.088081428E-2
1.490257200E1,-5.245755519E-2,2.243698158E-2,-2.403381050E-2,6.190991266E-2
1.491256600E1,-3.353730837E-2,5.112890791E-2,1.173536181E-2,6.226262919E-2
1.492255900E1,-2.737831918E-1,-4.997878343E-2,3.017689526E-2,2.799388503E-1
1.493255300E1,-4.597983975E-1,-2.530432366E-2,1.463148773E-2,4.607265519E-1
1.494254600E1,1.344598851E-1,7.109877105E-2,-4.644618809E-2,1.590337836E-1
1.495254000E1,3.373451668E-1,5.102096739E-2,-7.061097622E-3,3.412546846E-1
1.496253300E1,1.023078186E-1,-2.781217162E-2,5.301144183E-2,1.185353096E-1
1.497252700E1,6.422344130E-2,-1.057863181E-2,2.013605654E-2,6.813236115E-2
1.498252000E1,-4.991520409E-2,4.325036040E-2,-6.035145164E-2,8.946741859E-2
1.499251400E1,-1.216000580E-1,4.062989873E-2,-2.589205563E-2,1.307966411E-1
1.500250700E1,-5.604602798E-2,-3.980443176E-2,1.157222450E-2,6.970987319E-2
1.501250100E1,2.596557523E-2,-3.608273839E-2,1.222301960E-2,4.610398372E-2
1.502249500E1,3.676452373E-2,1.900108458E-2,-3.298472822E-2,5.292129737E-2
1.503248800E1,-7.176031955E-2,1.312483384E-2,-2.672879219E-2,7.769319827E-2
1.504248200E1,-1.400280698E-1,-1.313463250E-2,-1.791996181E-2,1.417797726E-1
1.505247500E1,-9.266036049E-2,8.400658183E-3,-1.467066407E-3,9.305195188E-2
1.506246900E1,4.878341155E-3,1.824066788E-2,-8.810584545E-3,2.083618433E-2
1.507246200E1,1.083164723E-2,2.179311635E-2,-3.665970325E-2,4.400225386E-2
1.508245600E1,-4.091030013E-2,3.983739544E-2,1.202187538E-3,5.711493664E-2
1.509244900E1,-3.619833967E-2,3.504951711E-2,-1.093253911E-2,5.155879028E-2
1.510244300E1,-1.416456928E-2,7.030513943E-3,-5.999827981E-3,1.691334045E-2
1.511243700E1,1.754542024E-2,-8.166509173E-3,-6.893867254E-3,2.054407577E-2
1.512243000E1,1.554298642E-2,-2.357117697E-3,2.081667244E-2,2.608590199E-2
1.513242400E1,-8.037235457E-3,5.184278442E-3,3.030027151E-3,1.003269462E-2
1.514241700E1,-4.453032047E-2,1.744164587E-2,-2.335962653E-3,4.788128208E-2
1.515241100E1,-6.522485007E-2,2.419449929E-3,9.356714487E-3,6.593696164E-2
1.516240400E1,-1.091949890E-1,9.762200620E-4,-2.700828910E-2,1.124897609E-1
1.517239800E1,4.745198227E-3,1.516128201E-2,-2.416537285E-2,2.891965808E-2
1.518239100E1,5.804637873E-2,-8.628722434E-3,-1.534250915E-2,6.065665274E-2
1.519238500E1,2.849914636E-3,-4.574888935E-3,-5.778803229E-3,7.902290109E-3
1.520237900E1,-4.047758790E-2,1.192638761E-2,-5.497552156E-3,4.255463457E-2
1.521237200E1,-8.065388887E-2,7.041874900E-4,7.365737557E-3,8.099259077E-2
1.522236600E1,-9.853221668E-2,3.814335657E-2,-4.308813214E-3,1.057453509E-1
1.523235900E1,-1.840608470E-2,3.372108910E-2,-1.450109482E-3,3.844474764E-2
1.524235300E1,5.683375756E-2,-3.378425273E-3,-7.866259217E-3,5.747493184E-2
1.525234600E1,3.429073124E-2,1.704402606E-2,-1.623596370E-2,4.159278292E-2
1.526234000E1,-1.489701527E-2,-2.342044214E-2,-1.607808888E-2,3.207714320E-2
1.527233300E1,-1.218054506E-2,-3.129422051E-2,-9.187145233E-3,3.481519141E-2
1.528232700E1,-4.681732183E-2,-6.716733165E-3,2.000624835E-2,5.135392976E-2
1.529232000E1,-1.175053168E-1,6.933884136E-3,-8.124121428E-3,1.179897436E-1
1.530231400E1,-1.160800672E-1,4.645026287E-2,1.303929090E-4,1.250289003E-1
1.531230800E1,-2.486440748E-2,2.967305713E-2,7.623015046E-3,3.945680470E-2
1.532230100E1,6.739864385E-2,3.102496080E-3,-1.421867430E-2,6.895196425E-2
1.533229500E1,4.208347999E-2,6.631149114E-3,-1.474667788E-3,4.262823093E-2
1.534228800E1,4.303185269E-5,3.345948558E-2,6.029064059E-3,3.399836232E-2
1.535228200E1,-8.578149500E-2,1.849901432E-2,-3.632875085E-2,9.497608412E-2
1.536227500E1,-6.646621395E-2,2.149008439E-2,-4.067907929E-2,8.083544282E-2
1.537226900E1,-3.183576861E-2,2.184050620E-2,7.073961496E-3,3.925002937E-2
1.538226200E1,1.224549484E-2,-3.376236222E-2,2.251938164E-2,4.239070412E-2
1.539225600E1,6.112006813E-2,-4.114492422E-2,1.252356648E-2,7.473558212E-2
1.540225000E1,6.884829652E-2,-2.311514896E-2,-2.801927269E-2,7.784264696E-2
1.541224300E1,-4.156843166E-2,-6.637226107E-2,-1.737850964E-2,8.021984884E-2
1.542223700E1,-2.702829023E-1,-9.641185183E-2,-1.437362552E-2,2.873233258E-1
1.543223000E1,5.732686057E-2,1.721841470E-1,-3.189480722E-2,1.842580477E-1
1.544222400E1,1.767169817E-1,1.045260513E-1,9.705208540E-3,2.055450756E-1
1.545221700E1,-4.396654839E-2,-7.237996452E-2,1.047002435E-2,8.533192867E-2
1.546221100E1,-1.456645573E-1,1.754891943E-2,-1.539922714E-2,1.475237744E-1
1.547220400E1,-1.082173254E-1,7.152607461E-2,-3.979147196E-2,1.356846716E-1
1.548219800E1,-3.309374224E-2,3.096555674E-2,-2.242407203E-2,5.056580353E-2
1.549219200E1,1.289533976E-2,-2.249368587E-2,4.975980520E-3,2.640106198E-2
1.550218500E1,5.300849995E-2,-2.248964307E-2,7.083317041E-3,5.801601927E-2
1.551217900E1,2.123405401E-2,-2.836511722E-3,-4.979021072E-2,5.420328341E-2
1.552217200E1,-6.802595872E-2,3.974519216E-2,-8.300473452E-2,1.144421134E-1
1.553216600E1,-4.089489637E-2,-6.913300110E-3,-2.504479408E-2,4.845026293E-2
1.554215900E1,6.705093551E-3,-2.502401363E-2,-9.774381101E-2,1.011188021E-1
1.555215300E1,8.119873060E-2,-1.304345248E-2,3.560954332E-4,8.224045420E-2
1.556214600E1,1.153330031E-1,-5.572122429E-2,2.411023360E-1,2.730144555E-1
1.557214000E1,-4.559311587E-2,-2.228127206E-3,-6.258859634E-3,4.607461438E-2
1.558213300E1,-1.683920632E-1,7.677587841E-2,-7.523729324E-2,1.997775582E-1
1.559212700E1,-1.208730207E-1,1.788459986E-2,8.265331686E-2,1.475185305E-1
1.560212100E1,-4.941301050E-2,-2.056925756E-2,7.527646959E-2,9.236496542E-2
1.561211400E1,-9.037229933E-2,4.232680639E-3,6.938364565E-2,1.140138516E-1
1.562210800E1,-1.350437113E-1,3.579558071E-2,-2.003723860E-2,1.411368786E-1
1.563210100E1,-2.954188216E-1,4.718349915E-2,-1.292298979E-1,3.258817719E-1
1.564209500E1,-3.294642165E-1,1.274493385E-1,-8.742815316E-2,3.639143935E-1